onset	duration	item	rotation	accuracy	reaction_time
10.0133	1	A3	0	1	1.2327
16.0507	1	A1	0	1	1.5001
22.0881	1	A3	0	1	1.0378
28.1256	1	A4	90	n/a	n/a
30.1647	1	A2	0	1	1.0419
34.203	1	A1	0	1	1.4756
36.2421	1	C5	0	1	1.2986
42.2795	1	C4	0	1	1.0707
46.3178	1	C3	0	1	1.6241
50.3561	1	C2	0	1	1.2904
56.3935	1	C1	0	1	1.2772
60.4318	1	B5	0	1	1.2533
62.4709	1	B4	0	1	1.2812
64.5101	1	B3	0	1	0.84886
68.5483	1	B2	0	1	0.78483
74.5858	1	B1	0	1	1.0999
78.624	1	A5	0	1	0.99803
84.6615	1	A4	0	1	0.92103
90.6989	1	A3	0	1	0.94789
94.7372	1	A2	0	1	0.7662
100.7746	1	A4	90	1	1.0956
102.8137	1	A3	0	1	1.218
104.8529	1	A4	0	1	1.0584
110.8903	1	A1	0	1	0.97356
116.9277	1	C5	0	1	0.98152
118.9668	1	C3	0	1	1.2875
121.006	1	C2	0	1	1.0295
127.0434	1	C5	90	1	1.0418
133.0808	1	C2	0	1	1.0917
137.1191	1	C4	0	1	1.0295
139.1582	1	C2	0	1	1.2741
143.1965	1	C1	0	1	1.3063
145.2357	1	B5	0	1	0.94506
151.2731	1	B2	0	1	0.89428
155.3114	1	B4	0	1	1.3448
159.3496	1	B5	0	1	0.99158
163.3879	1	C1	0	1	0.91317
167.4262	1	C2	90	1	1.3656
169.4653	1	C3	90	1	1.6208
173.5036	1	C4	90	1	1.1495
175.5427	1	C5	0	1	1.1746
181.5802	1	A1	0	1	1.129
187.6176	1	A2	0	1	1.348
193.655	1	A3	0	1	1.0294
195.6942	1	A4	0	1	1.0296
201.7316	1	A5	0	1	0.88865
207.769	1	B1	0	1	0.81537
209.8081	1	B2	0	1	1.1993
211.8473	1	B3	0	1	0.99229
215.8856	1	B4	0	1	1.2656
219.9238	1	B3	0	1	1.0419
223.9621	1	B4	0	1	1.1503
229.9995	1	B2	0	1	0.91177
234.0378	1	B3	0	1	0.84688
236.077	1	B5	0	1	0.9217
238.1161	1	B4	0	1	1.241
244.1535	1	B1	0	1	0.95825
246.1926	1	A5	0	1	1.3823
248.2318	1	A2	0	1	0.97323
252.2701	1	A5	0	1	0.92193
256.3083	1	B1	0	1	1.0501
260.3466	1	B4	0	1	0.94907
266.384	1	B2	0	1	0.85453
272.4215	1	B1	0	1	1.5521
276.4597	1	B2	0	1	0.75484
280.498	1	B1	0	1	0.77326
284.5363	1	A5	0	1	0.76734
286.5754	1	A4	0	1	0.7649
292.6129	1	A3	0	1	1.1206
298.6503	1	A2	0	1	0.89127
300.6894	1	A1	90	n/a	n/a
302.7285	1	C5	0	1	1.4606
304.7677	1	C4	0	1	1.3927
306.8068	1	C3	90	1	1.368
312.8442	1	C2	0	1	0.99608
314.8834	1	C1	0	1	0.97691
316.9225	1	B5	0	1	1.3402
320.9608	1	B4	0	1	1.2377
322.9999	1	B3	0	1	0.88515
327.0382	1	B2	0	1	0.93686
333.0756	1	B4	0	1	1.2196
335.1148	1	B3	0	1	0.85812
337.1539	1	B5	0	1	0.96489
341.1922	1	B2	0	1	0.95176
347.2296	1	B5	90	1	1.3612
349.2687	1	B3	90	1	1.4274
353.307	1	B5	0	1	1.4345
355.3461	1	C1	0	1	1.3066
359.3844	1	C4	0	1	1.3406
363.4227	1	C5	0	1	1.1497
367.461	1	C2	0	1	1.1619
369.5001	1	C3	0	1	1.0336
373.5384	1	C5	0	1	1.0377
379.5758	1	A1	0	1	1.3985
383.6141	1	A3	0	1	1.2572
385.6532	1	A4	90	1	1.0294
391.6907	1	A5	0	1	1.1493
393.7298	1	B1	0	1	0.97435
397.7681	1	B2	0	1	0.91103
399.8072	1	B3	0	n/a	n/a
401.8463	1	B4	0	1	0.85437
405.8846	1	B5	0	1	0.90761
411.922	1	C1	0	1	0.81308
413.9612	1	C2	0	1	1.0294
416.0003	1	C3	0	1	0.95898
420.0386	1	C4	0	1	1.3274
422.0777	1	C5	0	1	0.96856
424.1168	1	A1	0	1	1.2033
426.156	1	A2	0	1	1.0294
428.1951	1	A3	0	1	1.0832
432.2334	1	A4	0	1	0.86836
434.2725	1	A5	0	1	1.1165
438.3108	1	A4	0	1	0.75242
444.3482	1	A5	0	1	0.80981
450.3856	1	A4	0	1	0.73103
452.4248	1	A3	0	1	0.83558
456.4631	1	A4	0	1	0.81596
458.5022	1	A2	0	1	0.96676
462.5405	1	A1	0	1	1.5847
466.5787	1	A3	0	1	0.75693
470.617	1	A5	0	1	0.71718
472.6561	1	A4	0	1	0.70916
478.6936	1	A3	0	1	0.80263
484.731	1	A5	0	1	0.81993
488.7693	1	A2	0	1	1.3642
492.8076	1	A3	0	1	0.87189
496.8459	1	A4	0	1	0.95046
500.8841	1	A5	0	1	0.70586
502.9233	1	B1	0	1	0.65973
504.9624	1	B2	0	1	0.73001
507.0015	1	B3	0	1	0.86884
511.0398	1	B4	0	1	1.0875
515.0781	1	B5	0	1	1.0295
517.1172	1	C1	0	1	1.2822
521.1555	1	C2	0	1	1.5857
525.1938	1	C3	0	1	1.2374
531.2312	1	C4	0	1	0.94206
533.2703	1	C5	90	1	1.0001
535.3095	1	A1	0	1	0.84828
539.3477	1	A2	0	1	0.95562
545.3852	1	A3	0	1	1.1745
549.4235	1	A2	0	1	1.0377
551.4626	1	A4	0	1	1.0626
555.5009	1	A5	0	1	0.84955
557.54	1	A4	0	1	1.1205
561.5783	1	A1	0	1	1.0667
565.6165	1	A4	0	1	0.79018
569.6548	1	A5	0	n/a	n/a
571.694	1	B1	0	1	0.15312
575.7322	1	A5	0	1	0.77875
577.7714	1	A3	0	1	0.81721
581.8096	1	A1	0	1	0.74681
583.8488	1	A2	0	1	0.79609
585.8879	1	A1	0	1	0.73445
591.9253	1	A2	0	1	0.70577
595.9636	1	A1	0	1	0.89043
600.0019	1	C5	0	1	0.87691
602.041	1	C4	0	1	0.79677
608.0785	1	C3	0	1	1.2323
610.1176	1	C2	0	1	1.0295
