onset	duration	item	rotation	accuracy	reaction_time
10.0599	1	B1	0	n/a	n/a
12.099	1	A5	0	1	0.79501
16.1373	1	A2	0	1	0.90346
20.1756	1	A3	0	1	0.97576
26.213	1	A5	0	1	0.92897
28.2521	1	A4	90	1	1.1135
34.2895	1	A2	90	n/a	n/a
36.3287	1	A3	90	1	1.1264
40.367	1	A1	0	1	0.95968
44.4052	1	A4	0	1	0.73963
46.4444	1	A1	0	1	0.65143
50.4826	1	A4	0	1	0.75722
52.5218	1	A2	90	1	0.90167
56.5601	1	A4	0	1	0.67728
60.5983	1	A5	0	1	0.80855
66.6357	1	A4	0	1	0.74083
68.6749	1	A3	0	1	0.98939
72.7132	1	A2	0	1	0.85352
74.7523	1	A1	0	1	0.8619
78.7906	1	C5	0	1	1.1266
82.8288	1	C4	0	n/a	n/a
84.868	1	C3	0	1	0.17271
88.9063	1	C2	0	1	0.82065
94.9437	1	C1	0	1	1.0871
96.9828	1	B5	0	1	0.87954
103.0203	1	B4	0	1	0.96874
107.0585	1	B3	0	1	1.0505
111.0968	1	B2	0	1	0.92002
115.1351	1	B1	90	n/a	n/a
117.1742	1	A5	0	1	0.76216
123.2116	1	A2	0	1	0.84502
127.2499	1	A3	90	1	0.99914
133.2873	1	A1	0	1	0.88617
139.3248	1	A2	0	1	0.72373
141.3639	1	A3	0	1	0.68495
147.4013	1	A4	90	1	0.9641
149.4405	1	A2	0	1	0.67739
151.4796	1	A1	0	1	0.83089
155.5179	1	A4	0	1	0.68149
161.5553	1	A1	90	1	0.98986
163.5944	1	A4	90	1	0.8538
165.6336	1	A2	0	1	0.85175
171.671	1	A5	0	1	0.96979
173.7101	1	A2	0	1	0.7836
175.7493	1	A4	0	1	0.73766
181.7867	1	A3	0	1	0.7326
187.8241	1	A2	0	1	0.74106
189.8632	1	A1	0	1	0.83775
193.9015	1	C5	0	1	0.87236
195.9407	1	C4	0	1	0.90496
199.9789	1	C3	90	1	1.198
204.0172	1	C2	0	1	0.75013
210.0546	1	C1	0	1	0.99276
214.0929	1	B5	0	0	0.93895
218.1312	1	B4	0	1	0.9017
224.1686	1	B3	0	1	1.0294
226.2078	1	B2	0	1	0.87746
228.2469	1	B1	0	1	0.87204
230.286	1	A5	0	1	0.84248
236.3234	1	A4	0	1	0.73231
242.3609	1	A3	0	1	0.95851
244.4	1	A5	0	1	0.74461
248.4383	1	B1	90	1	0.87938
250.4774	1	B3	0	1	1.0969
254.5157	1	B2	0	1	0.74852
256.5548	1	B3	0	1	0.84601
258.594	1	B2	90	1	0.84658
260.6331	1	B1	0	1	0.95093
264.6714	1	B2	0	1	0.77725
268.7097	1	B5	0	1	0.77863
270.7488	1	B2	0	1	0.7946
276.7862	1	B3	90	1	0.89239
278.8253	1	B2	0	1	0.78181
280.8645	1	B3	0	1	0.75229
284.9027	1	B4	0	1	0.95897
286.9419	1	B5	0	1	0.79522
290.9802	1	C1	0	1	0.90004
297.0176	1	C2	0	1	0.91663
301.0559	1	C3	0	1	0.97361
305.0942	1	C4	0	1	1.0422
311.1316	1	C5	0	1	0.8832
315.1698	1	A1	0	1	0.90005
317.209	1	A2	0	1	0.83143
319.2481	1	A3	0	1	0.93365
323.2864	1	A4	0	1	0.83186
329.3238	1	A5	0	1	0.88383
331.363	1	B1	0	1	0.89088
335.4012	1	B2	0	1	0.77329
341.4387	1	B3	0	1	0.87839
345.4769	1	B4	0	1	0.87563
347.5161	1	B1	0	1	0.74789
351.5543	1	B4	0	1	0.82837
355.5926	1	B5	0	1	0.96505
361.6301	1	B2	0	1	0.79983
365.6683	1	B5	0	1	0.85881
367.7075	1	B3	0	1	0.93276
371.7457	1	B4	0	1	0.95742
373.7849	1	B5	0	1	0.95196
375.824	1	C1	0	1	0.98981
377.8631	1	C3	0	1	0.98201
383.9006	1	C5	0	1	0.81776
387.9388	1	C2	0	1	0.73357
389.978	1	C3	0	1	0.91044
396.0154	1	C4	0	1	0.89742
400.0537	1	C2	0	1	0.73642
406.0911	1	C1	0	1	0.81286
410.1294	1	B5	0	1	1.0295
414.1677	1	B4	0	1	1.0632
418.206	1	B3	0	1	0.92288
422.2442	1	B2	0	1	0.6665
424.2834	1	B1	0	1	0.77106
430.3208	1	A5	90	1	1.0843
434.3591	1	A4	0	1	0.73724
438.3974	1	A3	90	1	1.2194
444.4348	1	A2	0	1	0.98134
448.4731	1	A1	0	1	1.0844
450.5122	1	C5	0	1	0.7115
452.5513	1	C4	0	1	0.73689
458.5887	1	C3	0	1	0.82708
460.6279	1	C2	0	1	0.71717
462.667	1	C3	0	1	0.64535
464.7061	1	C2	0	1	0.72526
468.7444	1	C5	0	1	0.7893
474.7819	1	C3	0	1	0.66559
480.8193	1	C4	0	1	0.76358
486.8567	1	C1	0	1	0.9734
490.895	1	C4	0	1	0.66215
492.9341	1	C5	0	1	0.68708
498.9715	1	C3	0	1	0.67496
505.009	1	C2	0	1	0.59886
507.0481	1	C1	0	1	0.73387
509.0872	1	C3	0	1	0.68807
513.1255	1	C5	0	1	0.64037
515.1646	1	C2	0	1	0.69636
517.2038	1	C1	90	1	1.0295
521.242	1	C2	0	1	0.70921
525.2803	1	C3	0	1	0.7494
529.3186	1	C4	0	1	0.83403
531.3577	1	C5	0	1	0.9525
533.3969	1	A1	0	1	0.8512
539.4343	1	A2	0	1	0.85086
545.4717	1	A3	0	1	0.8935
547.5109	1	A4	0	1	0.70247
551.5491	1	A5	0	1	0.85985
557.5866	1	B1	0	1	1.0295
561.6248	1	B2	0	1	0.82138
563.664	1	B3	0	1	0.65645
565.7031	1	B4	0	1	1.0547
571.7405	1	B5	0	1	0.94806
575.7788	1	C1	0	1	0.85143
577.8179	1	C3	0	1	0.88588
581.8562	1	C4	0	1	0.79736
585.8945	1	C5	0	1	0.79345
587.9336	1	C3	0	1	0.80996
589.9728	1	C5	90	1	0.77902
594.0111	1	C3	0	1	0.8123
600.0485	1	C2	0	1	0.80512
604.0868	1	C3	0	1	0.86371
606.1259	1	C2	90	1	0.97
610.1642	1	C4	0	1	1.0294
