onset	duration	item	rotation	accuracy	reaction_time
10.0865	1	B4	0	n/a	n/a
16.1373	1	B1	0	1	1.2772
18.1764	1	B3	0	1	1.2212
24.2138	1	B2	0	1	1.0574
28.2521	1	B3	0	1	0.73282
30.2912	1	B5	0	1	1.2694
34.3295	1	B3	0	1	0.7892
38.3678	1	B2	0	1	0.8071
42.4061	1	B4	0	1	1.0293
48.4435	1	B5	0	1	1.1698
50.4826	1	B3	0	1	0.89883
54.5209	1	B5	0	1	1.0775
58.5592	1	C1	0	1	0.96034
60.5983	1	C3	0	1	1.1377
62.6375	1	C4	0	1	0.99397
68.6749	1	C5	0	1	0.95471
74.7123	1	A1	90	1	2.7758
80.7497	1	A2	90	1	1.2336
82.7889	1	A3	0	1	0.8731
86.8271	1	A4	0	n/a	n/a
88.8663	1	A5	0	1	0.028646
90.9054	1	B1	0	1	1.1716
94.9437	1	B2	0	1	0.82195
98.982	1	B3	0	1	0.82518
101.0211	1	B4	0	1	0.9059
107.0585	1	B5	0	1	1.0853
111.0968	1	C1	90	1	1.1416
117.1342	1	C2	0	1	0.88942
123.1717	1	C3	0	1	1.0574
129.2091	1	C4	0	1	1.1577
131.2482	1	C2	0	1	1.6867
135.2865	1	C5	0	1	0.76888
137.3256	1	C2	0	1	0.77134
143.3631	1	C1	0	1	0.77802
149.4005	1	C3	0	1	0.83664
153.4388	1	C5	0	1	0.86558
155.4779	1	C4	0	1	1.0295
159.5162	1	C3	0	1	1.0895
163.5544	1	C1	0	1	1.2427
169.5919	1	C2	0	1	1.1416
173.6302	1	C4	0	1	0.99955
179.6676	1	C3	0	1	1.0575
183.7059	1	C4	0	1	0.73387
189.7433	1	C1	0	1	1.0816
193.7816	1	C4	90	0	0.99163
197.8199	1	C5	0	1	0.9722
201.8581	1	A1	0	1	1.1254
205.8964	1	A2	0	1	1.5178
209.9347	1	A3	0	1	0.73675
211.9738	1	A4	0	1	0.7693
214.0129	1	A5	0	1	1.0294
218.0512	1	B1	0	1	0.94938
222.0895	1	B2	0	1	0.8604
226.1278	1	B3	0	1	1.1094
228.1669	1	B4	0	1	1.0294
232.2052	1	B5	0	1	0.98638
236.2435	1	C1	0	1	0.8533
238.2826	1	C2	0	1	0.78937
240.3217	1	C3	90	1	1.4932
244.36	1	C4	0	1	1.0855
248.3983	1	C3	0	1	0.83397
250.4374	1	C5	0	1	0.99487
252.4766	1	C2	0	1	0.97159
258.514	1	C5	0	1	1.0936
264.5514	1	C4	0	1	1.6633
270.5889	1	C2	0	1	0.79467
276.6263	1	C1	0	1	1.1418
278.6654	1	C4	90	0	1.2543
284.7028	1	C5	90	1	1.2702
290.7403	1	A1	0	0	0.98647
292.7794	1	A4	0	n/a	n/a
294.8185	1	A1	0	1	0.18958
300.8559	1	A2	0	1	1.134
304.8942	1	A4	0	1	1.3787
306.9334	1	A1	0	1	1.1682
312.9708	1	C5	0	1	0.76385
315.0099	1	C4	0	1	0.85924
319.0482	1	C3	0	1	1.1177
321.0873	1	C2	0	1	1.0815
325.1256	1	C1	0	1	0.88979
327.1647	1	B5	0	1	0.90633
331.203	1	B4	0	1	0.95477
335.2413	1	B3	90	1	1.2142
337.2804	1	B2	0	1	0.84546
341.3187	1	B1	0	1	0.88197
345.357	1	A5	0	1	0.946
349.3953	1	A4	0	n/a	n/a
351.4344	1	A3	0	1	0.90761
357.4718	1	A2	0	1	0.8058
359.511	1	A1	0	1	1.2943
365.5484	1	A2	0	1	0.81894
369.5867	1	A5	0	1	1.2301
373.625	1	A4	0	1	1.1336
375.6641	1	A5	0	1	0.9353
381.7015	1	A4	0	1	0.92269
383.7406	1	A1	0	1	1.1458
385.7798	1	A3	90	1	0.99631
391.8172	1	A2	0	1	0.77423
397.8546	1	A4	0	1	1.0296
401.8929	1	A5	0	1	0.96912
403.932	1	A3	0	1	1.9534
407.9703	1	A2	0	1	0.78743
414.0077	1	A5	0	1	0.75324
418.046	1	A4	0	1	1.1057
422.0843	1	A1	0	1	1.3951
426.1226	1	A2	0	1	0.81138
430.1609	1	A3	0	1	0.80765
434.1991	1	A4	0	1	0.98433
438.2374	1	A5	0	1	0.70604
440.2765	1	B1	0	1	1.0293
442.3157	1	B2	0	1	0.7472
446.354	1	B3	0	1	0.98793
448.3931	1	B4	0	1	0.94897
454.4305	1	B5	0	1	1.0334
458.4688	1	C1	0	1	0.88951
460.5079	1	C2	0	1	0.9301
466.5453	1	C3	90	1	1.3353
468.5845	1	C4	0	1	1.0454
472.6228	1	C5	0	1	0.91351
474.6619	1	A1	0	1	1.2103
476.701	1	A3	0	1	0.65608
482.7384	1	A2	0	1	0.99673
486.7767	1	A4	90	0	0.95211
490.815	1	A1	0	1	0.97579
492.8541	1	A4	0	0	1.0294
494.8933	1	A2	0	1	0.80018
498.9316	1	A4	0	1	0.89196
502.9698	1	A3	0	1	0.81921
509.0073	1	A4	0	1	1.0295
515.0447	1	A3	0	1	1.1058
519.083	1	A5	90	1	1.2589
523.1212	1	A3	0	n/a	n/a
525.1604	1	A5	0	1	0.35007
529.1987	1	B1	0	1	0.9912
531.2378	1	B3	90	1	1.3147
535.2761	1	B4	0	1	1.5082
537.3152	1	B5	0	1	0.91515
543.3526	1	C1	0	1	0.81266
549.39	1	C2	90	1	1.1621
551.4292	1	C3	0	1	1.1461
557.4666	1	C4	90	0	0.88552
559.5057	1	C5	0	1	0.69352
563.544	1	A1	0	1	1.1906
567.5823	1	A2	0	1	0.8821
569.6214	1	A3	0	1	0.72252
571.6606	1	A4	90	1	0.97055
573.6997	1	A5	0	1	1.1387
575.7388	1	B1	0	1	0.82939
581.7763	1	B2	0	1	1.0534
585.8145	1	B3	0	n/a	n/a
587.8537	1	B5	90	0	0.096989
589.8928	1	B4	0	1	1.146
591.9319	1	B3	0	1	0.68948
593.9711	1	B4	0	1	0.77808
596.0102	1	B5	0	1	0.69299
598.0493	1	C1	0	1	0.78333
600.0884	1	C2	0	1	0.71768
606.1259	1	C1	0	1	1.2954
612.1633	1	C2	0	1	1.0293
614.2024	1	C1	0	1	1.2267
