onset	duration	item	rotation	accuracy	reaction_time	stim_file
10.0138	1	A4	0	1	1.1596	sub-20_stim-commstruc_A4.jpg
14.0521	1	A5	0	1	0.7281	sub-20_stim-commstruc_A5.jpg
16.0912	1	B1	0	1	0.8661	sub-20_stim-commstruc_B1.jpg
18.1303	1	B2	90	1	0.95676	sub-20_stim-commstruc_B2.jpg
22.1686	1	B3	0	1	0.82706	sub-20_stim-commstruc_B3.jpg
24.2077	1	B1	0	1	0.88541	sub-20_stim-commstruc_B1.jpg
28.246	1	B4	0	1	0.82198	sub-20_stim-commstruc_B4.jpg
34.2834	1	B3	0	1	0.79475	sub-20_stim-commstruc_B3.jpg
40.3209	1	B2	0	1	0.85359	sub-20_stim-commstruc_B2.jpg
44.7723	1	B4	90	1	0.84248	sub-20_stim-commstruc_B4.jpg
46.8114	1	B5	0	1	0.98461	sub-20_stim-commstruc_B5.jpg
50.8497	1	C1	0	1	0.71581	sub-20_stim-commstruc_C1.jpg
56.8871	1	B5	0	1	0.77428	sub-20_stim-commstruc_B5.jpg
62.9246	1	B2	0	1	0.85637	sub-20_stim-commstruc_B2.jpg
66.9629	1	B4	0	1	0.69809	sub-20_stim-commstruc_B4.jpg
71.0011	1	B3	0	1	0.70637	sub-20_stim-commstruc_B3.jpg
73.0403	1	B2	0	1	1.1557	sub-20_stim-commstruc_B2.jpg
75.0794	1	B1	0	1	0.90041	sub-20_stim-commstruc_B1.jpg
79.1177	1	A5	0	1	0.68738	sub-20_stim-commstruc_A5.jpg
81.1568	1	A4	0	1	1.0886	sub-20_stim-commstruc_A4.jpg
83.1959	1	A3	0	1	1.1834	sub-20_stim-commstruc_A3.jpg
85.2351	1	A2	0	1	0.78604	sub-20_stim-commstruc_A2.jpg
91.2725	1	A1	0	1	0.80531	sub-20_stim-commstruc_A1.jpg
95.3108	1	C5	0	1	1.0294	sub-20_stim-commstruc_C5.jpg
97.3499	1	C4	0	1	0.67907	sub-20_stim-commstruc_C4.jpg
103.3873	1	C3	90	1	1.0293	sub-20_stim-commstruc_C3.jpg
105.4265	1	C2	0	1	1.1638	sub-20_stim-commstruc_C2.jpg
111.4639	1	C1	0	1	0.63719	sub-20_stim-commstruc_C1.jpg
113.503	1	B5	0	1	1.0292	sub-20_stim-commstruc_B5.jpg
117.5413	1	B4	0	1	0.68713	sub-20_stim-commstruc_B4.jpg
121.5796	1	B3	0	1	0.72359	sub-20_stim-commstruc_B3.jpg
127.617	1	B2	0	1	0.90015	sub-20_stim-commstruc_B2.jpg
129.6561	1	B3	0	1	0.8137	sub-20_stim-commstruc_B3.jpg
133.6944	1	B5	0	1	0.67051	sub-20_stim-commstruc_B5.jpg
135.7336	1	B3	0	1	0.67275	sub-20_stim-commstruc_B3.jpg
139.7718	1	B2	0	1	0.82593	sub-20_stim-commstruc_B2.jpg
145.8093	1	B3	0	1	0.70038	sub-20_stim-commstruc_B3.jpg
149.8475	1	B1	0	1	0.87063	sub-20_stim-commstruc_B1.jpg
153.8858	1	A5	0	1	0.83328	sub-20_stim-commstruc_A5.jpg
159.9232	1	A3	0	1	1.3453	sub-20_stim-commstruc_A3.jpg
163.9615	1	A5	0	1	0.79576	sub-20_stim-commstruc_A5.jpg
166.0007	1	B1	0	1	0.73876	sub-20_stim-commstruc_B1.jpg
170.0389	1	A5	0	1	0.78944	sub-20_stim-commstruc_A5.jpg
176.0764	1	B1	0	1	0.75926	sub-20_stim-commstruc_B1.jpg
180.1147	1	B3	0	1	0.92133	sub-20_stim-commstruc_B3.jpg
184.1529	1	B2	0	1	0.88543	sub-20_stim-commstruc_B2.jpg
188.1912	1	B1	0	1	0.79146	sub-20_stim-commstruc_B1.jpg
192.2295	1	A5	90	0	0.62332	sub-20_stim-commstruc_A5.jpg
194.2686	1	A4	0	1	0.91992	sub-20_stim-commstruc_A4.jpg
198.3069	1	A3	0	1	0.73807	sub-20_stim-commstruc_A3.jpg
202.3452	1	A2	0	1	0.76354	sub-20_stim-commstruc_A2.jpg
204.3843	1	A1	0	1	0.7662	sub-20_stim-commstruc_A1.jpg
208.4226	1	C5	0	1	0.68676	sub-20_stim-commstruc_C5.jpg
210.4617	1	C4	0	1	1.1913	sub-20_stim-commstruc_C4.jpg
214.5	1	C3	0	1	0.75968	sub-20_stim-commstruc_C3.jpg
216.5391	1	C2	0	1	0.8103	sub-20_stim-commstruc_C2.jpg
222.5766	1	C1	0	1	0.79833	sub-20_stim-commstruc_C1.jpg
228.614	1	B5	0	1	0.82254	sub-20_stim-commstruc_B5.jpg
232.6523	1	B4	0	1	1.0806	sub-20_stim-commstruc_B4.jpg
236.6905	1	B3	90	0	1.0295	sub-20_stim-commstruc_B3.jpg
240.7288	1	B5	0	1	0.83672	sub-20_stim-commstruc_B5.jpg
244.7671	1	B2	0	1	0.90043	sub-20_stim-commstruc_B2.jpg
246.8062	1	B3	0	1	0.81696	sub-20_stim-commstruc_B3.jpg
252.8437	1	B2	0	1	0.92968	sub-20_stim-commstruc_B2.jpg
254.8828	1	B1	0	1	0.87577	sub-20_stim-commstruc_B1.jpg
258.9211	1	A5	0	1	0.72326	sub-20_stim-commstruc_A5.jpg
262.9594	1	A2	0	1	0.59727	sub-20_stim-commstruc_A2.jpg
264.9985	1	A4	0	1	0.80641	sub-20_stim-commstruc_A4.jpg
271.0359	1	A5	90	1	0.99437	sub-20_stim-commstruc_A5.jpg
273.0751	1	A4	0	1	0.82544	sub-20_stim-commstruc_A4.jpg
279.1125	1	A5	0	1	0.77429	sub-20_stim-commstruc_A5.jpg
281.1516	1	A2	0	1	0.86136	sub-20_stim-commstruc_A2.jpg
285.1899	1	A3	0	1	0.76689	sub-20_stim-commstruc_A3.jpg
291.2273	1	A4	0	1	0.87346	sub-20_stim-commstruc_A4.jpg
293.2664	1	A3	0	1	1.0412	sub-20_stim-commstruc_A3.jpg
297.3047	1	A2	0	1	0.67044	sub-20_stim-commstruc_A2.jpg
301.343	1	A1	0	1	0.71164	sub-20_stim-commstruc_A1.jpg
305.3813	1	C5	0	1	0.79062	sub-20_stim-commstruc_C5.jpg
309.4196	1	C4	0	1	1.1044	sub-20_stim-commstruc_C4.jpg
311.4587	1	C3	90	1	1.0569	sub-20_stim-commstruc_C3.jpg
313.4978	1	C2	0	1	1.3299	sub-20_stim-commstruc_C2.jpg
319.5352	1	C1	0	1	0.84657	sub-20_stim-commstruc_C1.jpg
321.5744	1	B5	0	1	0.89434	sub-20_stim-commstruc_B5.jpg
325.6127	1	B4	0	1	0.70271	sub-20_stim-commstruc_B4.jpg
327.6518	1	B3	0	1	0.80318	sub-20_stim-commstruc_B3.jpg
329.6909	1	B2	0	1	1.0411	sub-20_stim-commstruc_B2.jpg
333.7292	1	B1	0	1	0.86703	sub-20_stim-commstruc_B1.jpg
335.7683	1	A5	0	1	0.79597	sub-20_stim-commstruc_A5.jpg
341.8058	1	A4	0	1	0.97716	sub-20_stim-commstruc_A4.jpg
343.8449	1	A3	0	1	1.1126	sub-20_stim-commstruc_A3.jpg
347.8832	1	A1	0	1	0.68965	sub-20_stim-commstruc_A1.jpg
351.9214	1	A3	0	1	0.85915	sub-20_stim-commstruc_A3.jpg
357.9589	1	A2	0	1	0.63761	sub-20_stim-commstruc_A2.jpg
363.9963	1	A1	0	1	0.91291	sub-20_stim-commstruc_A1.jpg
366.0354	1	A3	90	1	0.92157	sub-20_stim-commstruc_A3.jpg
372.0729	1	A5	0	1	0.83768	sub-20_stim-commstruc_A5.jpg
374.112	1	A3	0	1	0.83888	sub-20_stim-commstruc_A3.jpg
380.1494	1	A5	0	1	0.77579	sub-20_stim-commstruc_A5.jpg
382.1886	1	A3	0	1	0.93855	sub-20_stim-commstruc_A3.jpg
388.226	1	A5	0	1	0.7084	sub-20_stim-commstruc_A5.jpg
394.2634	1	A4	0	1	0.78873	sub-20_stim-commstruc_A4.jpg
398.3017	1	A5	90	1	0.90439	sub-20_stim-commstruc_A5.jpg
402.34	1	A4	0	1	0.8339	sub-20_stim-commstruc_A4.jpg
408.3774	1	A3	0	1	0.74895	sub-20_stim-commstruc_A3.jpg
412.4157	1	A4	0	1	0.70938	sub-20_stim-commstruc_A4.jpg
418.4531	1	A3	0	1	0.65805	sub-20_stim-commstruc_A3.jpg
422.4914	1	A2	0	1	0.91407	sub-20_stim-commstruc_A2.jpg
424.5305	1	A1	90	1	1.1879	sub-20_stim-commstruc_A1.jpg
430.5679	1	C5	0	1	0.96664	sub-20_stim-commstruc_C5.jpg
434.6062	1	C4	0	1	0.74982	sub-20_stim-commstruc_C4.jpg
436.6454	1	C3	0	1	0.8562	sub-20_stim-commstruc_C3.jpg
442.6828	1	C2	0	1	0.84874	sub-20_stim-commstruc_C2.jpg
448.7202	1	C1	0	1	1.1403	sub-20_stim-commstruc_C1.jpg
450.7594	1	B5	0	1	0.76466	sub-20_stim-commstruc_B5.jpg
456.7968	1	B4	0	1	0.71243	sub-20_stim-commstruc_B4.jpg
458.8359	1	B3	0	1	1.0293	sub-20_stim-commstruc_B3.jpg
460.875	1	B2	0	1	1.1787	sub-20_stim-commstruc_B2.jpg
462.9142	1	B1	0	1	1.2347	sub-20_stim-commstruc_B1.jpg
466.9525	1	A5	0	1	0.8038	sub-20_stim-commstruc_A5.jpg
468.9916	1	A4	0	1	1.2278	sub-20_stim-commstruc_A4.jpg
475.029	1	A2	90	1	0.90569	sub-20_stim-commstruc_A2.jpg
477.0681	1	A4	0	1	1.1519	sub-20_stim-commstruc_A4.jpg
479.1073	1	A3	0	1	0.99326	sub-20_stim-commstruc_A3.jpg
485.1447	1	A5	0	1	0.81111	sub-20_stim-commstruc_A5.jpg
491.1821	1	A3	0	1	0.70499	sub-20_stim-commstruc_A3.jpg
493.2213	1	A1	0	1	1.0413	sub-20_stim-commstruc_A1.jpg
497.2595	1	C5	0	1	0.72059	sub-20_stim-commstruc_C5.jpg
503.297	1	C4	0	1	0.64359	sub-20_stim-commstruc_C4.jpg
505.3361	1	C1	0	1	0.74865	sub-20_stim-commstruc_C1.jpg
511.3735	1	B5	90	1	0.98337	sub-20_stim-commstruc_B5.jpg
515.4118	1	B4	0	1	0.82363	sub-20_stim-commstruc_B4.jpg
517.4509	1	B5	0	1	1.1048	sub-20_stim-commstruc_B5.jpg
519.4901	1	B3	0	1	0.95418	sub-20_stim-commstruc_B3.jpg
521.5292	1	B5	0	1	0.81068	sub-20_stim-commstruc_B5.jpg
523.5683	1	B4	0	1	0.89106	sub-20_stim-commstruc_B4.jpg
527.6066	1	B3	0	1	0.65288	sub-20_stim-commstruc_B3.jpg
531.6449	1	B2	0	0	0.92219	sub-20_stim-commstruc_B2.jpg
533.684	1	B1	0	1	0.92017	sub-20_stim-commstruc_B1.jpg
535.7232	1	A5	0	1	0.72879	sub-20_stim-commstruc_A5.jpg
537.7623	1	A4	0	1	0.86001	sub-20_stim-commstruc_A4.jpg
541.8006	1	A3	0	1	0.79608	sub-20_stim-commstruc_A3.jpg
543.8397	1	A2	0	1	0.81344	sub-20_stim-commstruc_A2.jpg
547.878	1	A1	0	1	0.74479	sub-20_stim-commstruc_A1.jpg
553.9154	1	C5	0	1	0.98766	sub-20_stim-commstruc_C5.jpg
555.9545	1	C4	90	1	1.2355	sub-20_stim-commstruc_C4.jpg
559.9928	1	C3	0	1	0.77913	sub-20_stim-commstruc_C3.jpg
564.0311	1	C2	0	1	0.92439	sub-20_stim-commstruc_C2.jpg
570.0685	1	C1	0	1	0.79999	sub-20_stim-commstruc_C1.jpg
576.1059	1	B5	0	1	0.84427	sub-20_stim-commstruc_B5.jpg
580.1442	1	B4	0	1	0.90004	sub-20_stim-commstruc_B4.jpg
582.1834	1	B1	0	1	1.0292	sub-20_stim-commstruc_B1.jpg
588.2208	1	B3	90	1	1.1442	sub-20_stim-commstruc_B3.jpg
592.2591	1	B4	0	1	0.72974	sub-20_stim-commstruc_B4.jpg
594.2982	1	B5	0	1	0.74582	sub-20_stim-commstruc_B5.jpg
596.3373	1	B4	0	1	0.62649	sub-20_stim-commstruc_B4.jpg
600.3756	1	B2	0	1	0.9669	sub-20_stim-commstruc_B2.jpg
604.4139	1	B5	0	1	0.64655	sub-20_stim-commstruc_B5.jpg
606.453	1	B3	0	1	1.0651	sub-20_stim-commstruc_B3.jpg
608.4921	1	B1	0	1	1.2076	sub-20_stim-commstruc_B1.jpg
612.5304	1	A5	0	1	0.82541	sub-20_stim-commstruc_A5.jpg
