onset	duration	item	rotation	accuracy	reaction_time	stim_file
10.0229	1	C5	0	1	0.74996	sub-01_stim-commstruc_C5.jpg
14.0611	1	A1	0	1	0.57581	sub-01_stim-commstruc_A1.jpg
18.0994	1	C5	0	1	0.65595	sub-01_stim-commstruc_C5.jpg
24.1368	1	C2	0	1	0.69686	sub-01_stim-commstruc_C2.jpg
26.176	1	C3	0	1	0.62692	sub-01_stim-commstruc_C3.jpg
32.2134	1	C5	0	1	0.70941	sub-01_stim-commstruc_C5.jpg
38.2508	1	C2	0	1	0.69082	sub-01_stim-commstruc_C2.jpg
40.29	1	C4	0	1	0.8269	sub-01_stim-commstruc_C4.jpg
42.3291	1	C1	0	1	0.78874	sub-01_stim-commstruc_C1.jpg
44.3682	1	B5	0	1	0.78689	sub-01_stim-commstruc_B5.jpg
48.4065	1	B3	0	1	0.62838	sub-01_stim-commstruc_B3.jpg
54.4439	1	B5	90	1	0.8867	sub-01_stim-commstruc_B5.jpg
58.4822	1	B2	0	1	0.62697	sub-01_stim-commstruc_B2.jpg
60.5214	1	B1	0	1	0.79253	sub-01_stim-commstruc_B1.jpg
64.5596	1	B2	0	1	0.53908	sub-01_stim-commstruc_B2.jpg
66.5987	1	B1	90	1	1.0295	sub-01_stim-commstruc_B1.jpg
68.6379	1	A5	0	1	0.88621	sub-01_stim-commstruc_A5.jpg
72.6762	1	A4	0	1	0.75267	sub-01_stim-commstruc_A4.jpg
76.7144	1	A3	0	1	0.68037	sub-01_stim-commstruc_A3.jpg
82.7519	1	A2	0	1	0.81367	sub-01_stim-commstruc_A2.jpg
84.791	1	A1	0	1	0.83499	sub-01_stim-commstruc_A1.jpg
90.8284	1	C5	90	1	0.79311	sub-01_stim-commstruc_C5.jpg
94.8667	1	C4	0	1	0.84754	sub-01_stim-commstruc_C4.jpg
100.9041	1	C3	90	1	0.76252	sub-01_stim-commstruc_C3.jpg
102.9433	1	C2	0	1	0.68598	sub-01_stim-commstruc_C2.jpg
108.9807	1	C1	0	1	0.67805	sub-01_stim-commstruc_C1.jpg
113.019	1	B5	0	1	0.76045	sub-01_stim-commstruc_B5.jpg
115.0581	1	B4	0	1	0.75984	sub-01_stim-commstruc_B4.jpg
119.0964	1	B3	0	1	0.98763	sub-01_stim-commstruc_B3.jpg
123.1347	1	B2	0	1	0.62271	sub-01_stim-commstruc_B2.jpg
127.173	1	B5	90	1	0.75109	sub-01_stim-commstruc_B5.jpg
133.2104	1	B4	0	1	0.80922	sub-01_stim-commstruc_B4.jpg
139.2478	1	B1	0	1	0.9733	sub-01_stim-commstruc_B1.jpg
145.2852	1	A5	0	1	0.9102	sub-01_stim-commstruc_A5.jpg
147.3244	1	A3	0	1	0.65515	sub-01_stim-commstruc_A3.jpg
149.3635	1	A2	0	1	0.67313	sub-01_stim-commstruc_A2.jpg
151.4026	1	A1	0	1	0.64288	sub-01_stim-commstruc_A1.jpg
157.4401	1	A4	0	1	1.0295	sub-01_stim-commstruc_A4.jpg
161.4783	1	A3	0	1	0.80631	sub-01_stim-commstruc_A3.jpg
163.5175	1	A4	0	1	0.77241	sub-01_stim-commstruc_A4.jpg
167.5557	1	A3	0	1	0.64755	sub-01_stim-commstruc_A3.jpg
169.5949	1	A1	0	1	1.0509	sub-01_stim-commstruc_A1.jpg
175.6323	1	A3	0	1	0.60487	sub-01_stim-commstruc_A3.jpg
177.6714	1	A5	0	1	0.52356	sub-01_stim-commstruc_A5.jpg
183.7089	1	A2	0	1	0.63217	sub-01_stim-commstruc_A2.jpg
187.7471	1	A3	0	1	0.52831	sub-01_stim-commstruc_A3.jpg
189.7863	1	A4	0	1	0.7994	sub-01_stim-commstruc_A4.jpg
193.8245	1	A5	90	1	0.8677	sub-01_stim-commstruc_A5.jpg
199.862	1	B1	0	1	0.79901	sub-01_stim-commstruc_B1.jpg
201.9011	1	B2	0	1	0.58996	sub-01_stim-commstruc_B2.jpg
205.9394	1	B3	0	1	0.61003	sub-01_stim-commstruc_B3.jpg
209.9777	1	B4	0	1	0.79578	sub-01_stim-commstruc_B4.jpg
216.0151	1	B5	0	1	0.81435	sub-01_stim-commstruc_B5.jpg
218.0542	1	C1	0	1	1.2136	sub-01_stim-commstruc_C1.jpg
222.0925	1	C2	0	1	0.97483	sub-01_stim-commstruc_C2.jpg
224.1316	1	C3	90	1	1.1022	sub-01_stim-commstruc_C3.jpg
230.1691	1	C4	0	1	0.63681	sub-01_stim-commstruc_C4.jpg
232.2082	1	C5	0	1	0.5892	sub-01_stim-commstruc_C5.jpg
234.2473	1	A1	0	1	0.53383	sub-01_stim-commstruc_A1.jpg
238.2856	1	A2	90	0	0.58995	sub-01_stim-commstruc_A2.jpg
240.3247	1	A1	0	1	0.62374	sub-01_stim-commstruc_A1.jpg
244.363	1	A4	0	1	0.74326	sub-01_stim-commstruc_A4.jpg
246.3888	1	A1	0	1	0.63266	sub-01_stim-commstruc_A1.jpg
248.4279	1	A4	0	1	0.88776	sub-01_stim-commstruc_A4.jpg
254.4654	1	A2	0	1	0.71325	sub-01_stim-commstruc_A2.jpg
258.5036	1	A4	0	1	1.0594	sub-01_stim-commstruc_A4.jpg
262.5419	1	A1	0	1	1.0638	sub-01_stim-commstruc_A1.jpg
264.5811	1	C5	0	1	1.0295	sub-01_stim-commstruc_C5.jpg
268.6193	1	A1	0	1	0.98523	sub-01_stim-commstruc_A1.jpg
270.6585	1	C5	90	0	0.8646	sub-01_stim-commstruc_C5.jpg
274.6967	1	C2	0	1	0.53736	sub-01_stim-commstruc_C2.jpg
280.7342	1	C4	0	1	0.69336	sub-01_stim-commstruc_C4.jpg
286.7716	1	C1	0	1	0.71222	sub-01_stim-commstruc_C1.jpg
292.809	1	C4	0	1	0.6033	sub-01_stim-commstruc_C4.jpg
296.8473	1	C2	0	1	0.57953	sub-01_stim-commstruc_C2.jpg
300.8856	1	C1	0	1	0.59033	sub-01_stim-commstruc_C1.jpg
304.9239	1	B5	0	1	0.79305	sub-01_stim-commstruc_B5.jpg
310.9613	1	B4	0	1	0.75523	sub-01_stim-commstruc_B4.jpg
316.9987	1	B3	0	1	0.66982	sub-01_stim-commstruc_B3.jpg
321.037	1	B2	0	1	0.61385	sub-01_stim-commstruc_B2.jpg
327.0744	1	B1	0	1	0.73021	sub-01_stim-commstruc_B1.jpg
331.1127	1	A5	0	1	0.72511	sub-01_stim-commstruc_A5.jpg
337.1501	1	A4	90	1	0.8784	sub-01_stim-commstruc_A4.jpg
341.1884	1	A3	0	1	0.67919	sub-01_stim-commstruc_A3.jpg
343.2275	1	A2	0	1	0.65682	sub-01_stim-commstruc_A2.jpg
347.2658	1	A1	0	1	0.61927	sub-01_stim-commstruc_A1.jpg
353.3033	1	C5	0	1	0.63616	sub-01_stim-commstruc_C5.jpg
357.3415	1	C4	0	1	0.74268	sub-01_stim-commstruc_C4.jpg
363.379	1	C3	0	1	1.0423	sub-01_stim-commstruc_C3.jpg
365.4181	1	C2	0	1	0.91312	sub-01_stim-commstruc_C2.jpg
367.4572	1	C1	90	0	0.75621	sub-01_stim-commstruc_C1.jpg
373.4946	1	B5	90	1	0.73934	sub-01_stim-commstruc_B5.jpg
377.5329	1	B4	0	1	0.75026	sub-01_stim-commstruc_B4.jpg
379.5721	1	B5	0	1	1.0936	sub-01_stim-commstruc_B5.jpg
383.6103	1	C1	0	1	0.68046	sub-01_stim-commstruc_C1.jpg
387.6486	1	C4	90	1	1.1451	sub-01_stim-commstruc_C4.jpg
391.6869	1	C2	0	1	0.71552	sub-01_stim-commstruc_C2.jpg
393.726	1	C3	0	1	0.63655	sub-01_stim-commstruc_C3.jpg
395.7652	1	C1	0	1	0.56772	sub-01_stim-commstruc_C1.jpg
397.8043	1	C4	0	1	0.74282	sub-01_stim-commstruc_C4.jpg
403.8417	1	C5	0	1	0.54726	sub-01_stim-commstruc_C5.jpg
407.88	1	C2	0	1	0.58118	sub-01_stim-commstruc_C2.jpg
413.9174	1	C5	90	0	0.6072	sub-01_stim-commstruc_C5.jpg
417.9557	1	A1	0	1	0.74294	sub-01_stim-commstruc_A1.jpg
421.994	1	A2	0	1	1.0295	sub-01_stim-commstruc_A2.jpg
428.0314	1	A1	0	1	0.73335	sub-01_stim-commstruc_A1.jpg
430.0705	1	C5	0	1	0.58969	sub-01_stim-commstruc_C5.jpg
434.1088	1	C4	0	1	0.76566	sub-01_stim-commstruc_C4.jpg
436.148	1	C3	0	1	0.55176	sub-01_stim-commstruc_C3.jpg
440.1862	1	C2	0	1	0.51262	sub-01_stim-commstruc_C2.jpg
442.2254	1	C1	0	1	0.61189	sub-01_stim-commstruc_C1.jpg
446.2636	1	B5	90	1	0.8033	sub-01_stim-commstruc_B5.jpg
448.3028	1	B4	0	1	0.61947	sub-01_stim-commstruc_B4.jpg
452.3411	1	B3	0	1	0.97603	sub-01_stim-commstruc_B3.jpg
458.3785	1	B2	0	1	0.74727	sub-01_stim-commstruc_B2.jpg
460.4176	1	B1	0	1	0.7137	sub-01_stim-commstruc_B1.jpg
462.4567	1	A5	0	1	0.81852	sub-01_stim-commstruc_A5.jpg
464.4959	1	A4	0	1	0.89184	sub-01_stim-commstruc_A4.jpg
466.535	1	A3	0	1	0.6448	sub-01_stim-commstruc_A3.jpg
472.5724	1	A2	0	1	0.59324	sub-01_stim-commstruc_A2.jpg
478.6099	1	A5	0	1	0.60381	sub-01_stim-commstruc_A5.jpg
482.6481	1	B1	0	1	0.67698	sub-01_stim-commstruc_B1.jpg
484.6873	1	B3	90	1	1.0937	sub-01_stim-commstruc_B3.jpg
486.7264	1	B2	0	1	0.59798	sub-01_stim-commstruc_B2.jpg
492.7638	1	B4	0	1	0.76989	sub-01_stim-commstruc_B4.jpg
494.803	1	B1	90	0	0.62382	sub-01_stim-commstruc_B1.jpg
496.8421	1	B4	0	1	0.74688	sub-01_stim-commstruc_B4.jpg
500.8804	1	B3	0	1	0.70933	sub-01_stim-commstruc_B3.jpg
502.9195	1	B4	0	1	0.59772	sub-01_stim-commstruc_B4.jpg
506.9578	1	B1	0	1	0.96577	sub-01_stim-commstruc_B1.jpg
508.9969	1	B3	90	1	1.0295	sub-01_stim-commstruc_B3.jpg
513.0352	1	B4	0	1	0.6815	sub-01_stim-commstruc_B4.jpg
517.0735	1	B2	0	1	0.64318	sub-01_stim-commstruc_B2.jpg
523.1109	1	B1	0	1	0.83762	sub-01_stim-commstruc_B1.jpg
527.1492	1	B4	0	1	0.61512	sub-01_stim-commstruc_B4.jpg
531.1875	1	B3	0	1	0.54316	sub-01_stim-commstruc_B3.jpg
537.2249	1	B2	0	1	0.59606	sub-01_stim-commstruc_B2.jpg
539.264	1	B1	90	0	0.53895	sub-01_stim-commstruc_B1.jpg
545.3015	1	A5	90	1	0.75057	sub-01_stim-commstruc_A5.jpg
549.3397	1	A4	0	1	0.6783	sub-01_stim-commstruc_A4.jpg
555.3771	1	A3	0	1	0.62791	sub-01_stim-commstruc_A3.jpg
559.4154	1	A2	90	0	0.70736	sub-01_stim-commstruc_A2.jpg
561.4546	1	A1	0	1	0.67777	sub-01_stim-commstruc_A1.jpg
565.4928	1	C5	0	1	0.77363	sub-01_stim-commstruc_C5.jpg
569.5311	1	C4	0	1	0.66586	sub-01_stim-commstruc_C4.jpg
573.5694	1	C3	0	1	0.72209	sub-01_stim-commstruc_C3.jpg
577.6077	1	C2	0	1	0.70943	sub-01_stim-commstruc_C2.jpg
579.6468	1	C1	0	1	0.7987	sub-01_stim-commstruc_C1.jpg
581.6859	1	B5	0	1	0.8638	sub-01_stim-commstruc_B5.jpg
583.7251	1	B4	0	1	0.7744	sub-01_stim-commstruc_B4.jpg
585.7642	1	B3	0	1	0.69715	sub-01_stim-commstruc_B3.jpg
587.8033	1	B4	0	1	0.56999	sub-01_stim-commstruc_B4.jpg
591.8416	1	B5	0	1	0.62476	sub-01_stim-commstruc_B5.jpg
593.8807	1	B3	0	1	0.60407	sub-01_stim-commstruc_B3.jpg
597.919	1	B5	90	0	0.7242	sub-01_stim-commstruc_B5.jpg
599.9582	1	B4	0	1	0.92713	sub-01_stim-commstruc_B4.jpg
601.9973	1	B2	0	1	0.64615	sub-01_stim-commstruc_B2.jpg
604.0364	1	B5	0	1	0.74443	sub-01_stim-commstruc_B5.jpg
608.0747	1	C1	0	1	0.91484	sub-01_stim-commstruc_C1.jpg
610.1138	1	C2	0	1	0.6176	sub-01_stim-commstruc_C2.jpg
