onset	duration	item	rotation	accuracy	reaction_time
10.0219	1	A3	0	0	0.84841
16.0593	1	A2	0	0	0.80856
20.0976	1	A1	0	0	0.71481
22.1367	1	C5	0	0	0.67576
26.175	1	C4	0	0	0.75832
28.2141	1	C3	0	0	0.70334
30.2533	1	C2	0	0	0.71175
34.2915	1	C1	0	0	0.81707
40.329	1	B5	0	0	0.65227
44.3672	1	B4	90	0	0.98245
50.4047	1	B2	0	0	0.80795
54.443	1	B3	0	0	0.83298
56.4821	1	B2	0	0	0.7389
60.5204	1	B1	0	0	0.72345
66.5578	1	B2	0	0	0.64884
72.5952	1	B1	0	0	0.80208
74.6343	1	B3	0	0	0.68375
76.7001	1	B5	90	0	0.85548
80.7384	1	B3	0	0	0.67454
84.7767	1	B2	0	0	0.70065
90.8141	1	B1	0	0	0.64509
96.8515	1	A5	0	0	0.67462
102.889	1	A2	90	1	0.65133
106.9273	1	A4	0	0	0.79929
108.9664	1	A2	90	0	0.78387
111.0055	1	A1	0	0	0.71074
113.0446	1	C5	0	0	0.77739
117.0829	1	C4	90	0	0.7698
121.1212	1	C3	0	0	0.95539
123.1603	1	C2	90	0	0.85979
129.1978	1	C1	0	0	1.0805
133.2361	1	B5	0	0	0.87248
137.2743	1	B4	0	0	0.89845
143.3118	1	B3	0	0	0.70941
145.3509	1	B2	0	0	0.71839
147.39	1	B1	0	0	0.64742
149.4291	1	A5	0	0	0.80913
151.4683	1	A4	0	0	0.74266
157.5057	1	A3	0	0	0.80148
159.5448	1	A2	0	0	0.97232
165.5823	1	A3	0	0	0.87802
169.6206	1	A1	0	0	0.63124
171.6597	1	A3	0	0	0.88047
175.6979	1	A1	0	0	0.60419
177.7371	1	A3	0	0	0.65209
183.7745	1	A1	0	0	0.49626
185.8136	1	C5	0	0	0.66994
191.8511	1	A1	0	0	0.60228
197.8885	1	A3	0	0	0.63786
201.9268	1	A2	0	0	0.85354
203.9659	1	A5	0	0	0.65566
206.005	1	B1	0	0	0.83245
208.0442	1	A5	0	0	0.63933
212.0825	1	A3	0	0	0.61102
216.1207	1	A4	0	1	0.92572
220.159	1	A5	90	0	0.84393
224.1973	1	B1	0	0	0.70499
226.2364	1	B2	0	0	0.78305
230.2747	1	B3	0	0	0.68258
236.3121	1	B4	0	0	0.71764
238.3513	1	B5	0	0	0.82121
242.3895	1	C1	0	0	0.77692
246.4278	1	C2	0	0	0.71364
248.467	1	C3	0	0	0.72827
250.5061	1	C4	0	0	0.75607
252.5452	1	C5	0	0	0.74051
256.5835	1	A1	0	0	0.66748
258.6226	1	A2	0	0	0.83905
260.6618	1	A3	0	0	0.7181
262.7009	1	A4	0	0	0.9905
264.74	1	A5	0	0	0.67449
266.7792	1	A2	0	0	0.74525
270.8174	1	A5	0	0	0.61198
274.8557	1	A2	0	0	0.73341
280.8931	1	A3	0	0	0.63224
286.9306	1	A4	0	0	0.61214
290.9688	1	A2	0	0	0.56426
293.008	1	A3	90	0	0.75766
295.0471	1	A2	0	0	0.83894
301.0845	1	A1	0	0	0.6096
305.1228	1	A2	90	1	0.64303
307.1619	1	A4	0	0	0.6751
313.1994	1	A2	0	0	0.81354
317.2377	1	A4	0	0	0.64062
319.2768	1	A2	0	0	0.73567
325.3142	1	A1	0	0	0.54004
327.3534	1	C5	0	0	0.60331
329.3925	1	C4	0	0	0.73937
331.4316	1	C3	0	0	0.6464
333.4707	1	C2	0	0	0.62149
337.509	1	C1	0	0	0.76767
339.5482	1	B5	0	0	0.68122
343.5864	1	B4	0	0	0.81823
349.6239	1	B3	0	0	0.71709
353.6621	1	B2	0	0	0.7492
355.7013	1	B1	0	0	0.66266
359.7396	1	A5	0	0	0.55151
361.7787	1	A4	0	0	0.94632
367.8161	1	A3	0	0	0.67029
373.8535	1	A2	0	0	0.66144
375.8927	1	A3	0	0	0.5915
377.9318	1	A5	0	0	0.60769
379.9709	1	A3	0	0	0.57895
384.0092	1	A5	0	0	0.69346
388.0475	1	A3	0	0	0.95751
394.0849	1	A2	0	0	0.62262
396.124	1	A3	0	0	0.70483
400.1623	1	A1	0	0	0.6894
402.2015	1	A4	0	0	0.65826
404.2406	1	A3	0	0	0.59533
410.278	1	A5	0	0	0.60757
416.3154	1	B1	0	0	0.59152
420.3537	1	B3	0	0	0.61833
424.392	1	B4	0	0	0.87054
426.4311	1	B2	0	0	0.71776
430.4694	1	B3	0	0	0.67333
436.5068	1	B4	0	0	0.6745
438.546	1	B5	0	0	0.82074
442.5842	1	C1	0	0	0.58835
446.6225	1	C2	0	0	0.70221
452.66	1	C3	0	0	0.72944
456.6982	1	C4	0	0	0.72997
460.7365	1	C5	90	1	0.58026
464.7748	1	A1	0	0	0.62009
466.8139	1	A2	0	0	0.87261
470.8522	1	A3	0	0	0.89472
474.8905	1	A4	0	0	0.82478
476.9296	1	A5	0	0	0.61178
480.9679	1	B1	0	0	0.69469
485.0062	1	B2	90	1	0.91201
487.0453	1	B3	0	0	0.69483
489.0844	1	B2	0	0	0.84861
495.1219	1	B1	0	0	0.64164
499.1601	1	B2	0	0	0.72671
505.1976	1	B5	0	0	0.91824
509.2359	1	C1	0	0	0.76859
515.2733	1	C2	0	0	0.73295
519.3116	1	C5	90	1	0.90285
523.3498	1	C4	0	0	0.7757
525.389	1	C2	0	0	0.75163
527.4281	1	C3	0	0	0.86311
531.4664	1	C4	0	0	0.67438
537.5038	1	C5	0	0	0.76576
541.5421	1	C2	90	1	0.68559
547.5795	1	C4	0	0	0.5922
551.6178	1	C5	0	0	0.77724
557.6552	1	A1	0	0	0.58186
561.6935	1	A2	0	0	0.89404
565.7318	1	A3	0	0	0.67965
571.7692	1	A4	0	0	1.0688
575.8075	1	A5	0	0	0.63687
577.8466	1	B1	0	0	0.71851
581.8849	1	B2	0	0	0.87215
587.9223	1	B3	0	0	0.53919
589.9615	1	B4	0	0	0.82903
595.9989	1	B5	0	0	0.93343
602.0363	1	C1	0	0	0.81559
606.0746	1	C2	0	0	0.79449
608.1137	1	C3	0	0	0.93281
610.1529	1	C4	0	0	0.76377
