onset	duration	item	rotation	accuracy	reaction_time	stim_file
10.0227	1	B5	0	0	0.75234	sub-18_stim-commstruc_B5.jpg
16.0601	1	C1	0	0	0.91462	sub-18_stim-commstruc_C1.jpg
18.0993	1	C4	0	0	0.73079	sub-18_stim-commstruc_C4.jpg
22.1375	1	C2	0	0	0.81146	sub-18_stim-commstruc_C2.jpg
26.1758	1	C5	90	0	0.90887	sub-18_stim-commstruc_C5.jpg
28.2149	1	C4	90	0	0.81561	sub-18_stim-commstruc_C4.jpg
30.2541	1	C3	0	0	0.82306	sub-18_stim-commstruc_C3.jpg
34.2924	1	C2	90	0	1.0294	sub-18_stim-commstruc_C2.jpg
38.3306	1	C1	90	0	0.92405	sub-18_stim-commstruc_C1.jpg
40.3698	1	B5	0	0	0.75675	sub-18_stim-commstruc_B5.jpg
44.408	1	B4	90	1	0.93627	sub-18_stim-commstruc_B4.jpg
50.4455	1	B3	0	0	0.71308	sub-18_stim-commstruc_B3.jpg
52.4846	1	B2	0	0	0.8353	sub-18_stim-commstruc_B2.jpg
54.5237	1	B1	0	0	0.75651	sub-18_stim-commstruc_B1.jpg
60.5612	1	A5	0	0	0.80605	sub-18_stim-commstruc_A5.jpg
62.6003	1	A4	0	0	0.94837	sub-18_stim-commstruc_A4.jpg
66.6386	1	A3	0	1	0.8084	sub-18_stim-commstruc_A3.jpg
68.6777	1	A2	0	0	1.0331	sub-18_stim-commstruc_A2.jpg
70.7168	1	A1	0	0	0.83169	sub-18_stim-commstruc_A1.jpg
72.756	1	C5	0	0	0.81662	sub-18_stim-commstruc_C5.jpg
74.7951	1	C3	0	0	0.73214	sub-18_stim-commstruc_C3.jpg
76.8342	1	C2	0	0	0.66179	sub-18_stim-commstruc_C2.jpg
80.8725	1	C1	0	0	0.93296	sub-18_stim-commstruc_C1.jpg
84.9108	1	C3	0	0	0.77645	sub-18_stim-commstruc_C3.jpg
88.9491	1	C2	0	0	0.68934	sub-18_stim-commstruc_C2.jpg
94.9865	1	C1	90	0	0.82008	sub-18_stim-commstruc_C1.jpg
99.0248	1	C4	0	0	0.72458	sub-18_stim-commstruc_C4.jpg
105.0622	1	C3	90	1	0.76177	sub-18_stim-commstruc_C3.jpg
111.0996	1	C4	0	0	0.68369	sub-18_stim-commstruc_C4.jpg
113.1387	1	C5	0	0	0.80458	sub-18_stim-commstruc_C5.jpg
115.1779	1	C4	0	0	0.683	sub-18_stim-commstruc_C4.jpg
117.217	1	C2	0	0	0.7989	sub-18_stim-commstruc_C2.jpg
119.2561	1	C5	0	0	0.68541	sub-18_stim-commstruc_C5.jpg
121.2953	1	C4	0	0	0.60077	sub-18_stim-commstruc_C4.jpg
125.3336	1	C1	90	0	0.82638	sub-18_stim-commstruc_C1.jpg
129.3718	1	C2	0	1	0.94598	sub-18_stim-commstruc_C2.jpg
135.4093	1	C3	0	0	0.94855	sub-18_stim-commstruc_C3.jpg
141.4467	1	C4	0	0	0.74261	sub-18_stim-commstruc_C4.jpg
145.485	1	C5	0	0	0.70688	sub-18_stim-commstruc_C5.jpg
147.5241	1	A1	0	0	0.67597	sub-18_stim-commstruc_A1.jpg
149.5632	1	A2	0	0	0.93895	sub-18_stim-commstruc_A2.jpg
155.6007	1	A3	0	0	0.82368	sub-18_stim-commstruc_A3.jpg
157.6398	1	A4	0	0	0.67865	sub-18_stim-commstruc_A4.jpg
161.6781	1	A5	0	0	0.67941	sub-18_stim-commstruc_A5.jpg
165.7164	1	B1	0	0	0.81772	sub-18_stim-commstruc_B1.jpg
167.7555	1	B2	0	1	1.041	sub-18_stim-commstruc_B2.jpg
173.7929	1	B3	90	0	0.78877	sub-18_stim-commstruc_B3.jpg
175.832	1	B4	0	0	0.79686	sub-18_stim-commstruc_B4.jpg
179.8703	1	B5	0	0	0.68025	sub-18_stim-commstruc_B5.jpg
183.9086	1	C1	90	1	0.68838	sub-18_stim-commstruc_C1.jpg
185.9477	1	C3	0	0	0.76278	sub-18_stim-commstruc_C3.jpg
189.986	1	C5	0	0	0.86854	sub-18_stim-commstruc_C5.jpg
192.0251	1	C3	0	0	0.7235	sub-18_stim-commstruc_C3.jpg
196.0634	1	C4	90	0	1.0294	sub-18_stim-commstruc_C4.jpg
198.1025	1	C2	0	0	0.87902	sub-18_stim-commstruc_C2.jpg
204.14	1	C1	0	0	0.90804	sub-18_stim-commstruc_C1.jpg
208.1783	1	B5	0	0	0.68419	sub-18_stim-commstruc_B5.jpg
210.2174	1	B4	0	0	0.93982	sub-18_stim-commstruc_B4.jpg
214.2557	1	B2	0	0	0.81351	sub-18_stim-commstruc_B2.jpg
218.294	1	B1	0	0	0.80139	sub-18_stim-commstruc_B1.jpg
224.3314	1	A5	0	0	0.63654	sub-18_stim-commstruc_A5.jpg
230.3688	1	A4	0	0	0.57351	sub-18_stim-commstruc_A4.jpg
236.4062	1	A5	0	0	0.59843	sub-18_stim-commstruc_A5.jpg
242.4437	1	A3	0	0	0.64365	sub-18_stim-commstruc_A3.jpg
244.4828	1	A1	0	0	0.66153	sub-18_stim-commstruc_A1.jpg
248.5211	1	A2	0	0	0.83663	sub-18_stim-commstruc_A2.jpg
250.5602	1	A3	90	1	0.90333	sub-18_stim-commstruc_A3.jpg
256.5976	1	A4	0	0	0.74646	sub-18_stim-commstruc_A4.jpg
260.6359	1	A5	90	0	0.68967	sub-18_stim-commstruc_A5.jpg
262.675	1	B1	0	0	0.6659	sub-18_stim-commstruc_B1.jpg
268.7125	1	B2	0	0	0.86834	sub-18_stim-commstruc_B2.jpg
274.7499	1	B3	0	0	0.91891	sub-18_stim-commstruc_B3.jpg
276.789	1	B4	0	0	0.87158	sub-18_stim-commstruc_B4.jpg
280.8273	1	B5	0	0	0.75433	sub-18_stim-commstruc_B5.jpg
284.8656	1	C1	0	0	0.85287	sub-18_stim-commstruc_C1.jpg
290.903	1	C2	0	0	0.83157	sub-18_stim-commstruc_C2.jpg
296.9404	1	C3	0	0	0.67563	sub-18_stim-commstruc_C3.jpg
298.9796	1	C4	90	0	0.86741	sub-18_stim-commstruc_C4.jpg
301.0187	1	C5	0	0	0.86731	sub-18_stim-commstruc_C5.jpg
307.0561	1	A1	0	0	0.70383	sub-18_stim-commstruc_A1.jpg
313.0936	1	A3	0	0	0.76275	sub-18_stim-commstruc_A3.jpg
317.1318	1	A1	0	0	0.71548	sub-18_stim-commstruc_A1.jpg
323.1693	1	A4	0	0	0.77929	sub-18_stim-commstruc_A4.jpg
329.2067	1	A2	0	0	0.87148	sub-18_stim-commstruc_A2.jpg
333.245	1	A5	0	0	0.65642	sub-18_stim-commstruc_A5.jpg
335.2841	1	A2	0	0	0.88076	sub-18_stim-commstruc_A2.jpg
337.3232	1	A3	0	0	0.8763	sub-18_stim-commstruc_A3.jpg
341.3615	1	A4	90	0	0.98963	sub-18_stim-commstruc_A4.jpg
343.4006	1	A2	0	0	0.88734	sub-18_stim-commstruc_A2.jpg
347.4389	1	A3	0	0	0.84049	sub-18_stim-commstruc_A3.jpg
351.4772	1	A1	0	0	0.72271	sub-18_stim-commstruc_A1.jpg
357.5146	1	A3	0	0	0.74088	sub-18_stim-commstruc_A3.jpg
363.5521	1	A5	0	0	0.66359	sub-18_stim-commstruc_A5.jpg
365.5912	1	B1	0	0	0.76634	sub-18_stim-commstruc_B1.jpg
371.6286	1	B2	0	0	0.83251	sub-18_stim-commstruc_B2.jpg
373.6677	1	B1	0	0	0.63666	sub-18_stim-commstruc_B1.jpg
375.7069	1	A5	0	0	0.63736	sub-18_stim-commstruc_A5.jpg
379.7452	1	A4	0	0	0.79597	sub-18_stim-commstruc_A4.jpg
381.7843	1	A3	0	0	0.63656	sub-18_stim-commstruc_A3.jpg
383.8234	1	A2	0	0	0.7435	sub-18_stim-commstruc_A2.jpg
387.8617	1	A1	0	0	0.67298	sub-18_stim-commstruc_A1.jpg
393.8991	1	C5	0	0	0.81173	sub-18_stim-commstruc_C5.jpg
395.9383	1	C4	0	0	0.72537	sub-18_stim-commstruc_C4.jpg
399.9765	1	C3	0	0	0.916	sub-18_stim-commstruc_C3.jpg
404.0148	1	C2	0	0	0.73473	sub-18_stim-commstruc_C2.jpg
408.0531	1	C1	0	0	0.89562	sub-18_stim-commstruc_C1.jpg
410.0922	1	B5	0	0	0.82557	sub-18_stim-commstruc_B5.jpg
414.1305	1	B4	0	0	0.78602	sub-18_stim-commstruc_B4.jpg
418.1688	1	B3	0	0	0.66004	sub-18_stim-commstruc_B3.jpg
424.2062	1	B2	0	0	0.61529	sub-18_stim-commstruc_B2.jpg
428.2445	1	B4	0	0	0.6518	sub-18_stim-commstruc_B4.jpg
432.2828	1	B3	0	0	0.61248	sub-18_stim-commstruc_B3.jpg
438.3202	1	B1	0	0	0.71124	sub-18_stim-commstruc_B1.jpg
442.3585	1	B2	0	0	0.6403	sub-18_stim-commstruc_B2.jpg
444.3976	1	B5	0	0	0.66414	sub-18_stim-commstruc_B5.jpg
448.4359	1	B3	90	1	0.68382	sub-18_stim-commstruc_B3.jpg
452.4742	1	B4	0	0	0.82053	sub-18_stim-commstruc_B4.jpg
456.5125	1	B3	0	0	0.80625	sub-18_stim-commstruc_B3.jpg
458.5516	1	B1	0	0	0.93348	sub-18_stim-commstruc_B1.jpg
462.5899	1	B3	90	0	0.82556	sub-18_stim-commstruc_B3.jpg
466.6281	1	B5	0	0	0.84969	sub-18_stim-commstruc_B5.jpg
468.6673	1	B2	0	0	0.77081	sub-18_stim-commstruc_B2.jpg
470.7064	1	B5	0	0	0.72375	sub-18_stim-commstruc_B5.jpg
476.7438	1	B2	0	0	0.80629	sub-18_stim-commstruc_B2.jpg
480.7821	1	B3	0	0	0.62555	sub-18_stim-commstruc_B3.jpg
486.8195	1	B2	0	0	0.70772	sub-18_stim-commstruc_B2.jpg
490.8578	1	B1	0	0	0.86113	sub-18_stim-commstruc_B1.jpg
494.8961	1	A5	0	0	0.89304	sub-18_stim-commstruc_A5.jpg
498.9344	1	A4	0	0	0.97447	sub-18_stim-commstruc_A4.jpg
502.9727	1	A3	0	0	0.78539	sub-18_stim-commstruc_A3.jpg
505.0118	1	A2	0	0	0.74706	sub-18_stim-commstruc_A2.jpg
511.0492	1	A1	0	0	0.6598	sub-18_stim-commstruc_A1.jpg
513.0883	1	C5	0	0	0.66399	sub-18_stim-commstruc_C5.jpg
519.1258	1	C4	90	0	0.75414	sub-18_stim-commstruc_C4.jpg
521.1649	1	C3	0	0	0.73023	sub-18_stim-commstruc_C3.jpg
523.204	1	C2	0	0	0.73842	sub-18_stim-commstruc_C2.jpg
527.2423	1	C1	0	0	0.89044	sub-18_stim-commstruc_C1.jpg
529.2814	1	B5	0	0	0.71744	sub-18_stim-commstruc_B5.jpg
533.3197	1	B4	0	0	0.59707	sub-18_stim-commstruc_B4.jpg
537.358	1	B3	0	0	0.7285	sub-18_stim-commstruc_B3.jpg
541.3963	1	B1	0	0	0.72041	sub-18_stim-commstruc_B1.jpg
543.4354	1	B2	0	0	0.73291	sub-18_stim-commstruc_B2.jpg
545.4746	1	B3	0	0	0.80459	sub-18_stim-commstruc_B3.jpg
547.5137	1	B4	0	0	0.742	sub-18_stim-commstruc_B4.jpg
553.5511	1	B1	0	0	0.63009	sub-18_stim-commstruc_B1.jpg
559.5885	1	B4	0	0	0.67517	sub-18_stim-commstruc_B4.jpg
561.6277	1	B3	90	0	0.79647	sub-18_stim-commstruc_B3.jpg
563.6668	1	B5	0	0	0.75413	sub-18_stim-commstruc_B5.jpg
567.7051	1	C1	0	0	0.92721	sub-18_stim-commstruc_C1.jpg
569.7442	1	B5	0	0	0.82982	sub-18_stim-commstruc_B5.jpg
575.7816	1	B3	0	0	0.66388	sub-18_stim-commstruc_B3.jpg
577.8208	1	B5	0	0	0.79329	sub-18_stim-commstruc_B5.jpg
579.8599	1	B4	0	0	0.63615	sub-18_stim-commstruc_B4.jpg
585.8973	1	B2	0	0	0.72415	sub-18_stim-commstruc_B2.jpg
589.9356	1	B4	0	0	0.66905	sub-18_stim-commstruc_B4.jpg
595.973	1	B3	0	0	0.68099	sub-18_stim-commstruc_B3.jpg
600.0113	1	B2	0	0	0.6929	sub-18_stim-commstruc_B2.jpg
606.0487	1	B1	0	0	0.65238	sub-18_stim-commstruc_B1.jpg
610.087	1	A5	0	0	0.6058	sub-18_stim-commstruc_A5.jpg
612.1262	1	A4	0	0	0.9441	sub-18_stim-commstruc_A4.jpg
