onset	duration	item	rotation	accuracy	reaction_time	stim_file
10.0219	1	A3	0	0	0.84841	sub-18_stim-commstruc_A3.jpg
16.0593	1	A2	0	0	0.80856	sub-18_stim-commstruc_A2.jpg
20.0976	1	A1	0	0	0.71481	sub-18_stim-commstruc_A1.jpg
22.1367	1	C5	0	0	0.67576	sub-18_stim-commstruc_C5.jpg
26.175	1	C4	0	0	0.75832	sub-18_stim-commstruc_C4.jpg
28.2141	1	C3	0	0	0.70334	sub-18_stim-commstruc_C3.jpg
30.2533	1	C2	0	0	0.71175	sub-18_stim-commstruc_C2.jpg
34.2915	1	C1	0	0	0.81707	sub-18_stim-commstruc_C1.jpg
40.329	1	B5	0	0	0.65227	sub-18_stim-commstruc_B5.jpg
44.3672	1	B4	90	0	0.98245	sub-18_stim-commstruc_B4.jpg
50.4047	1	B2	0	0	0.80795	sub-18_stim-commstruc_B2.jpg
54.443	1	B3	0	0	0.83298	sub-18_stim-commstruc_B3.jpg
56.4821	1	B2	0	0	0.7389	sub-18_stim-commstruc_B2.jpg
60.5204	1	B1	0	0	0.72345	sub-18_stim-commstruc_B1.jpg
66.5578	1	B2	0	0	0.64884	sub-18_stim-commstruc_B2.jpg
72.5952	1	B1	0	0	0.80208	sub-18_stim-commstruc_B1.jpg
74.6343	1	B3	0	0	0.68375	sub-18_stim-commstruc_B3.jpg
76.7001	1	B5	90	0	0.85548	sub-18_stim-commstruc_B5.jpg
80.7384	1	B3	0	0	0.67454	sub-18_stim-commstruc_B3.jpg
84.7767	1	B2	0	0	0.70065	sub-18_stim-commstruc_B2.jpg
90.8141	1	B1	0	0	0.64509	sub-18_stim-commstruc_B1.jpg
96.8515	1	A5	0	0	0.67462	sub-18_stim-commstruc_A5.jpg
102.889	1	A2	90	1	0.65133	sub-18_stim-commstruc_A2.jpg
106.9273	1	A4	0	0	0.79929	sub-18_stim-commstruc_A4.jpg
108.9664	1	A2	90	0	0.78387	sub-18_stim-commstruc_A2.jpg
111.0055	1	A1	0	0	0.71074	sub-18_stim-commstruc_A1.jpg
113.0446	1	C5	0	0	0.77739	sub-18_stim-commstruc_C5.jpg
117.0829	1	C4	90	0	0.7698	sub-18_stim-commstruc_C4.jpg
121.1212	1	C3	0	0	0.95539	sub-18_stim-commstruc_C3.jpg
123.1603	1	C2	90	0	0.85979	sub-18_stim-commstruc_C2.jpg
129.1978	1	C1	0	0	1.0805	sub-18_stim-commstruc_C1.jpg
133.2361	1	B5	0	0	0.87248	sub-18_stim-commstruc_B5.jpg
137.2743	1	B4	0	0	0.89845	sub-18_stim-commstruc_B4.jpg
143.3118	1	B3	0	0	0.70941	sub-18_stim-commstruc_B3.jpg
145.3509	1	B2	0	0	0.71839	sub-18_stim-commstruc_B2.jpg
147.39	1	B1	0	0	0.64742	sub-18_stim-commstruc_B1.jpg
149.4291	1	A5	0	0	0.80913	sub-18_stim-commstruc_A5.jpg
151.4683	1	A4	0	0	0.74266	sub-18_stim-commstruc_A4.jpg
157.5057	1	A3	0	0	0.80148	sub-18_stim-commstruc_A3.jpg
159.5448	1	A2	0	0	0.97232	sub-18_stim-commstruc_A2.jpg
165.5823	1	A3	0	0	0.87802	sub-18_stim-commstruc_A3.jpg
169.6206	1	A1	0	0	0.63124	sub-18_stim-commstruc_A1.jpg
171.6597	1	A3	0	0	0.88047	sub-18_stim-commstruc_A3.jpg
175.6979	1	A1	0	0	0.60419	sub-18_stim-commstruc_A1.jpg
177.7371	1	A3	0	0	0.65209	sub-18_stim-commstruc_A3.jpg
183.7745	1	A1	0	0	0.49626	sub-18_stim-commstruc_A1.jpg
185.8136	1	C5	0	0	0.66994	sub-18_stim-commstruc_C5.jpg
191.8511	1	A1	0	0	0.60228	sub-18_stim-commstruc_A1.jpg
197.8885	1	A3	0	0	0.63786	sub-18_stim-commstruc_A3.jpg
201.9268	1	A2	0	0	0.85354	sub-18_stim-commstruc_A2.jpg
203.9659	1	A5	0	0	0.65566	sub-18_stim-commstruc_A5.jpg
206.005	1	B1	0	0	0.83245	sub-18_stim-commstruc_B1.jpg
208.0442	1	A5	0	0	0.63933	sub-18_stim-commstruc_A5.jpg
212.0825	1	A3	0	0	0.61102	sub-18_stim-commstruc_A3.jpg
216.1207	1	A4	0	1	0.92572	sub-18_stim-commstruc_A4.jpg
220.159	1	A5	90	0	0.84393	sub-18_stim-commstruc_A5.jpg
224.1973	1	B1	0	0	0.70499	sub-18_stim-commstruc_B1.jpg
226.2364	1	B2	0	0	0.78305	sub-18_stim-commstruc_B2.jpg
230.2747	1	B3	0	0	0.68258	sub-18_stim-commstruc_B3.jpg
236.3121	1	B4	0	0	0.71764	sub-18_stim-commstruc_B4.jpg
238.3513	1	B5	0	0	0.82121	sub-18_stim-commstruc_B5.jpg
242.3895	1	C1	0	0	0.77692	sub-18_stim-commstruc_C1.jpg
246.4278	1	C2	0	0	0.71364	sub-18_stim-commstruc_C2.jpg
248.467	1	C3	0	0	0.72827	sub-18_stim-commstruc_C3.jpg
250.5061	1	C4	0	0	0.75607	sub-18_stim-commstruc_C4.jpg
252.5452	1	C5	0	0	0.74051	sub-18_stim-commstruc_C5.jpg
256.5835	1	A1	0	0	0.66748	sub-18_stim-commstruc_A1.jpg
258.6226	1	A2	0	0	0.83905	sub-18_stim-commstruc_A2.jpg
260.6618	1	A3	0	0	0.7181	sub-18_stim-commstruc_A3.jpg
262.7009	1	A4	0	0	0.9905	sub-18_stim-commstruc_A4.jpg
264.74	1	A5	0	0	0.67449	sub-18_stim-commstruc_A5.jpg
266.7792	1	A2	0	0	0.74525	sub-18_stim-commstruc_A2.jpg
270.8174	1	A5	0	0	0.61198	sub-18_stim-commstruc_A5.jpg
274.8557	1	A2	0	0	0.73341	sub-18_stim-commstruc_A2.jpg
280.8931	1	A3	0	0	0.63224	sub-18_stim-commstruc_A3.jpg
286.9306	1	A4	0	0	0.61214	sub-18_stim-commstruc_A4.jpg
290.9688	1	A2	0	0	0.56426	sub-18_stim-commstruc_A2.jpg
293.008	1	A3	90	0	0.75766	sub-18_stim-commstruc_A3.jpg
295.0471	1	A2	0	0	0.83894	sub-18_stim-commstruc_A2.jpg
301.0845	1	A1	0	0	0.6096	sub-18_stim-commstruc_A1.jpg
305.1228	1	A2	90	1	0.64303	sub-18_stim-commstruc_A2.jpg
307.1619	1	A4	0	0	0.6751	sub-18_stim-commstruc_A4.jpg
313.1994	1	A2	0	0	0.81354	sub-18_stim-commstruc_A2.jpg
317.2377	1	A4	0	0	0.64062	sub-18_stim-commstruc_A4.jpg
319.2768	1	A2	0	0	0.73567	sub-18_stim-commstruc_A2.jpg
325.3142	1	A1	0	0	0.54004	sub-18_stim-commstruc_A1.jpg
327.3534	1	C5	0	0	0.60331	sub-18_stim-commstruc_C5.jpg
329.3925	1	C4	0	0	0.73937	sub-18_stim-commstruc_C4.jpg
331.4316	1	C3	0	0	0.6464	sub-18_stim-commstruc_C3.jpg
333.4707	1	C2	0	0	0.62149	sub-18_stim-commstruc_C2.jpg
337.509	1	C1	0	0	0.76767	sub-18_stim-commstruc_C1.jpg
339.5482	1	B5	0	0	0.68122	sub-18_stim-commstruc_B5.jpg
343.5864	1	B4	0	0	0.81823	sub-18_stim-commstruc_B4.jpg
349.6239	1	B3	0	0	0.71709	sub-18_stim-commstruc_B3.jpg
353.6621	1	B2	0	0	0.7492	sub-18_stim-commstruc_B2.jpg
355.7013	1	B1	0	0	0.66266	sub-18_stim-commstruc_B1.jpg
359.7396	1	A5	0	0	0.55151	sub-18_stim-commstruc_A5.jpg
361.7787	1	A4	0	0	0.94632	sub-18_stim-commstruc_A4.jpg
367.8161	1	A3	0	0	0.67029	sub-18_stim-commstruc_A3.jpg
373.8535	1	A2	0	0	0.66144	sub-18_stim-commstruc_A2.jpg
375.8927	1	A3	0	0	0.5915	sub-18_stim-commstruc_A3.jpg
377.9318	1	A5	0	0	0.60769	sub-18_stim-commstruc_A5.jpg
379.9709	1	A3	0	0	0.57895	sub-18_stim-commstruc_A3.jpg
384.0092	1	A5	0	0	0.69346	sub-18_stim-commstruc_A5.jpg
388.0475	1	A3	0	0	0.95751	sub-18_stim-commstruc_A3.jpg
394.0849	1	A2	0	0	0.62262	sub-18_stim-commstruc_A2.jpg
396.124	1	A3	0	0	0.70483	sub-18_stim-commstruc_A3.jpg
400.1623	1	A1	0	0	0.6894	sub-18_stim-commstruc_A1.jpg
402.2015	1	A4	0	0	0.65826	sub-18_stim-commstruc_A4.jpg
404.2406	1	A3	0	0	0.59533	sub-18_stim-commstruc_A3.jpg
410.278	1	A5	0	0	0.60757	sub-18_stim-commstruc_A5.jpg
416.3154	1	B1	0	0	0.59152	sub-18_stim-commstruc_B1.jpg
420.3537	1	B3	0	0	0.61833	sub-18_stim-commstruc_B3.jpg
424.392	1	B4	0	0	0.87054	sub-18_stim-commstruc_B4.jpg
426.4311	1	B2	0	0	0.71776	sub-18_stim-commstruc_B2.jpg
430.4694	1	B3	0	0	0.67333	sub-18_stim-commstruc_B3.jpg
436.5068	1	B4	0	0	0.6745	sub-18_stim-commstruc_B4.jpg
438.546	1	B5	0	0	0.82074	sub-18_stim-commstruc_B5.jpg
442.5842	1	C1	0	0	0.58835	sub-18_stim-commstruc_C1.jpg
446.6225	1	C2	0	0	0.70221	sub-18_stim-commstruc_C2.jpg
452.66	1	C3	0	0	0.72944	sub-18_stim-commstruc_C3.jpg
456.6982	1	C4	0	0	0.72997	sub-18_stim-commstruc_C4.jpg
460.7365	1	C5	90	1	0.58026	sub-18_stim-commstruc_C5.jpg
464.7748	1	A1	0	0	0.62009	sub-18_stim-commstruc_A1.jpg
466.8139	1	A2	0	0	0.87261	sub-18_stim-commstruc_A2.jpg
470.8522	1	A3	0	0	0.89472	sub-18_stim-commstruc_A3.jpg
474.8905	1	A4	0	0	0.82478	sub-18_stim-commstruc_A4.jpg
476.9296	1	A5	0	0	0.61178	sub-18_stim-commstruc_A5.jpg
480.9679	1	B1	0	0	0.69469	sub-18_stim-commstruc_B1.jpg
485.0062	1	B2	90	1	0.91201	sub-18_stim-commstruc_B2.jpg
487.0453	1	B3	0	0	0.69483	sub-18_stim-commstruc_B3.jpg
489.0844	1	B2	0	0	0.84861	sub-18_stim-commstruc_B2.jpg
495.1219	1	B1	0	0	0.64164	sub-18_stim-commstruc_B1.jpg
499.1601	1	B2	0	0	0.72671	sub-18_stim-commstruc_B2.jpg
505.1976	1	B5	0	0	0.91824	sub-18_stim-commstruc_B5.jpg
509.2359	1	C1	0	0	0.76859	sub-18_stim-commstruc_C1.jpg
515.2733	1	C2	0	0	0.73295	sub-18_stim-commstruc_C2.jpg
519.3116	1	C5	90	1	0.90285	sub-18_stim-commstruc_C5.jpg
523.3498	1	C4	0	0	0.7757	sub-18_stim-commstruc_C4.jpg
525.389	1	C2	0	0	0.75163	sub-18_stim-commstruc_C2.jpg
527.4281	1	C3	0	0	0.86311	sub-18_stim-commstruc_C3.jpg
531.4664	1	C4	0	0	0.67438	sub-18_stim-commstruc_C4.jpg
537.5038	1	C5	0	0	0.76576	sub-18_stim-commstruc_C5.jpg
541.5421	1	C2	90	1	0.68559	sub-18_stim-commstruc_C2.jpg
547.5795	1	C4	0	0	0.5922	sub-18_stim-commstruc_C4.jpg
551.6178	1	C5	0	0	0.77724	sub-18_stim-commstruc_C5.jpg
557.6552	1	A1	0	0	0.58186	sub-18_stim-commstruc_A1.jpg
561.6935	1	A2	0	0	0.89404	sub-18_stim-commstruc_A2.jpg
565.7318	1	A3	0	0	0.67965	sub-18_stim-commstruc_A3.jpg
571.7692	1	A4	0	0	1.0688	sub-18_stim-commstruc_A4.jpg
575.8075	1	A5	0	0	0.63687	sub-18_stim-commstruc_A5.jpg
577.8466	1	B1	0	0	0.71851	sub-18_stim-commstruc_B1.jpg
581.8849	1	B2	0	0	0.87215	sub-18_stim-commstruc_B2.jpg
587.9223	1	B3	0	0	0.53919	sub-18_stim-commstruc_B3.jpg
589.9615	1	B4	0	0	0.82903	sub-18_stim-commstruc_B4.jpg
595.9989	1	B5	0	0	0.93343	sub-18_stim-commstruc_B5.jpg
602.0363	1	C1	0	0	0.81559	sub-18_stim-commstruc_C1.jpg
606.0746	1	C2	0	0	0.79449	sub-18_stim-commstruc_C2.jpg
608.1137	1	C3	0	0	0.93281	sub-18_stim-commstruc_C3.jpg
610.1529	1	C4	0	0	0.76377	sub-18_stim-commstruc_C4.jpg
