onset	duration	item	rotation	accuracy	reaction_time
10.0145	1	A3	0	1	0.87303
12.0537	1	A1	0	1	0.65599
18.0911	1	A4	0	1	0.8102
24.1285	1	A3	0	1	0.62766
28.1668	1	A1	0	1	0.66373
30.206	1	C5	0	1	0.96777
34.2442	1	C4	0	1	0.84282
40.2817	1	C3	0	1	0.82626
42.3208	1	C2	90	1	0.93974
44.3599	1	C1	0	1	0.81358
46.3991	1	B5	0	1	0.7489
48.4382	1	B4	0	1	0.72811
50.4773	1	B3	0	1	0.7207
52.5164	1	B2	0	1	0.89924
56.5547	1	B1	90	1	0.92319
62.5922	1	A5	0	1	0.89339
68.6296	1	A4	0	1	0.84092
74.667	1	A3	0	1	0.82855
76.7061	1	A2	0	1	0.8127
80.7444	1	A1	0	1	0.69956
82.7836	1	C5	0	1	0.87681
88.821	1	C3	0	1	0.75285
92.8593	1	C4	90	1	0.85762
98.8967	1	C3	0	1	0.70732
104.9341	1	C2	0	1	0.84893
108.9724	1	C4	0	1	0.72795
113.0107	1	C2	0	1	0.68413
117.049	1	C4	0	1	0.70925
119.0881	1	C2	0	1	0.74031
125.1255	1	C1	0	1	0.90554
127.1647	1	C4	0	1	0.71955
131.2029	1	C3	0	1	0.72299
135.2412	1	C1	0	1	0.80486
141.2786	1	B5	0	1	0.77567
145.3169	1	C1	0	1	0.69813
151.3544	1	B5	0	1	0.7544
157.3918	1	B4	0	1	0.77309
159.4309	1	B3	0	1	0.73541
165.4683	1	B2	0	1	0.80139
171.5058	1	B1	0	1	0.74032
175.5441	1	A5	0	1	0.78843
179.5823	1	A4	0	1	0.78147
181.6215	1	A3	0	1	0.67872
183.6606	1	A2	0	1	0.77582
189.698	1	A1	0	1	0.8021
193.7363	1	C5	0	1	0.97482
195.7754	1	C4	0	1	0.70121
199.8137	1	C3	0	1	0.74597
203.852	1	C2	0	1	0.76151
207.8903	1	C1	0	1	0.9629
211.9286	1	C3	0	1	0.66858
213.9677	1	C4	0	1	0.6775
216.0068	1	C5	0	1	0.71713
220.0451	1	C2	0	1	0.72083
224.0834	1	C3	0	1	0.67361
226.2291	1	C4	0	1	0.64062
228.2683	1	C1	0	1	0.65663
232.3065	1	C4	0	1	0.66823
234.3457	1	C5	0	1	0.8105
236.3848	1	A1	90	1	1.0374
240.4231	1	A3	0	1	0.88718
244.4614	1	A5	0	1	0.70561
248.4997	1	B1	0	1	0.89126
254.5371	1	B4	0	1	0.72546
256.5762	1	B3	0	1	0.74918
262.6136	1	B2	0	1	0.73785
268.6511	1	B1	0	1	0.89883
270.6902	1	A5	0	1	0.74935
272.7293	1	A4	0	1	0.96384
278.7668	1	A3	0	1	0.85538
280.8059	1	A2	0	1	0.77762
284.8442	1	A1	0	1	0.79494
290.8816	1	C5	0	1	0.88408
294.9199	1	C4	0	1	0.82322
298.9582	1	C3	0	1	0.88072
300.9973	1	C2	0	1	1.0415
305.0356	1	C1	90	0	0.97963
309.0739	1	B5	0	1	0.7462
311.113	1	B4	0	1	0.8274
313.1521	1	B3	0	1	0.68415
317.1904	1	B5	0	1	0.71822
321.2287	1	B2	90	1	0.95212
323.2678	1	B3	90	1	0.9931
327.3061	1	B1	0	1	1.0536
329.3452	1	A5	0	1	0.83023
331.3844	1	A2	90	1	0.90925
335.4226	1	A3	0	1	0.92833
337.4618	1	A2	0	1	0.75878
343.4992	1	A5	0	1	0.77978
347.5375	1	A3	0	1	0.79824
349.5766	1	A1	0	1	0.85171
355.614	1	A2	0	1	0.74988
361.6515	1	A4	0	1	0.74032
367.6889	1	A2	0	1	0.67623
369.728	1	A5	0	1	0.66042
373.7663	1	B1	90	1	0.83005
379.8037	1	B2	0	1	0.72959
381.8429	1	B3	0	1	1.0017
383.882	1	B4	0	1	0.81119
385.9211	1	B5	0	1	0.74259
391.9586	1	C1	0	0	1.1348
393.9977	1	C2	0	1	0.17575
398.036	1	C3	0	1	0.79392
404.0734	1	C4	0	1	0.79024
410.1108	1	C5	0	1	0.96006
416.1483	1	A1	0	1	0.76959
420.1865	1	A2	0	1	0.84208
424.2248	1	A3	0	1	0.84324
428.2631	1	A4	0	1	1.1105
432.3014	1	A5	90	1	0.92852
436.3397	1	A4	0	1	0.61664
440.3779	1	A3	0	1	1.2201
444.4162	1	A1	0	1	0.75755
450.4537	1	A4	0	1	0.68073
456.4911	1	A3	0	1	0.76228
460.5294	1	A4	0	1	0.78666
462.5685	1	A1	90	1	1.078
464.6076	1	A4	0	1	0.68517
468.6459	1	A5	0	1	0.78189
470.685	1	A3	90	1	1.0293
474.7233	1	A1	0	1	0.82717
480.7607	1	A3	0	1	1.2558
484.799	1	A1	0	1	0.71712
488.8373	1	A4	0	1	0.78258
494.8747	1	A5	0	1	0.73785
496.9139	1	A4	0	1	0.70964
498.953	1	A3	90	1	0.94056
500.9921	1	A2	0	1	0.80683
503.0312	1	A1	0	1	0.70919
507.0695	1	C5	0	1	0.88816
509.1087	1	C4	0	1	0.7057
511.1478	1	C3	0	1	0.73097
515.1861	1	C2	0	1	0.82133
517.2252	1	C1	0	1	0.82757
521.2635	1	B5	90	1	0.90435
527.3009	1	B4	0	1	0.71239
533.3384	1	B3	0	1	0.9784
535.3775	1	B2	0	1	0.82718
539.4158	1	B1	0	1	0.75853
541.4549	1	A5	0	1	0.81462
545.4932	1	A3	0	1	1.1065
549.5315	1	A4	0	1	0.99246
551.5706	1	A3	90	1	1.0998
555.6089	1	A1	0	1	0.86906
559.6471	1	A2	0	1	0.86144
565.6846	1	A5	0	1	0.82518
569.7228	1	B1	0	1	0.72345
571.762	1	B4	0	1	0.67715
573.8011	1	B5	0	1	0.796
575.8403	1	B2	0	1	0.76475
579.8785	1	B4	0	1	0.68694
583.9168	1	B1	0	1	0.73611
589.9542	1	B4	0	1	0.70811
595.9917	1	B3	0	1	0.72718
598.0308	1	B5	0	1	0.93433
600.0699	1	B4	0	1	0.64942
602.1091	1	B3	0	1	0.66673
606.1473	1	B2	0	1	0.75533
608.1865	1	B1	0	1	0.76277
614.2239	1	A5	90	1	0.93501
