onset	duration	item	rotation	accuracy	reaction_time	stim_file
10.0131	1	B5	0	1	0.96275	sub-15_stim-commstruc_B5.jpg
14.0514	1	C1	0	1	1.0976	sub-15_stim-commstruc_C1.jpg
18.0896	1	C2	0	1	0.82804	sub-15_stim-commstruc_C2.jpg
22.1279	1	C3	90	1	0.88753	sub-15_stim-commstruc_C3.jpg
24.1671	1	C4	0	1	0.7601	sub-15_stim-commstruc_C4.jpg
28.2053	1	C5	0	1	0.96803	sub-15_stim-commstruc_C5.jpg
30.2445	1	A1	0	1	0.88061	sub-15_stim-commstruc_A1.jpg
32.2836	1	A2	0	1	0.8364	sub-15_stim-commstruc_A2.jpg
34.3227	1	A3	0	1	0.94836	sub-15_stim-commstruc_A3.jpg
38.361	1	A4	0	1	0.88788	sub-15_stim-commstruc_A4.jpg
42.3993	1	A1	0	1	0.73634	sub-15_stim-commstruc_A1.jpg
44.4384	1	A3	0	1	0.89645	sub-15_stim-commstruc_A3.jpg
48.4767	1	A2	0	1	0.7127	sub-15_stim-commstruc_A2.jpg
52.515	1	A3	0	1	0.73286	sub-15_stim-commstruc_A3.jpg
54.5541	1	A1	0	1	0.77251	sub-15_stim-commstruc_A1.jpg
58.5924	1	A4	0	1	0.98106	sub-15_stim-commstruc_A4.jpg
64.6298	1	A1	90	1	0.94492	sub-15_stim-commstruc_A1.jpg
70.6672	1	C5	0	1	0.88412	sub-15_stim-commstruc_C5.jpg
74.7055	1	C4	0	1	0.78871	sub-15_stim-commstruc_C4.jpg
78.7438	1	C2	0	1	0.75268	sub-15_stim-commstruc_C2.jpg
82.7821	1	C3	0	1	0.91333	sub-15_stim-commstruc_C3.jpg
84.8212	1	C1	0	1	0.76844	sub-15_stim-commstruc_C1.jpg
90.8586	1	C4	0	1	0.82822	sub-15_stim-commstruc_C4.jpg
96.8961	1	C3	0	1	0.7843	sub-15_stim-commstruc_C3.jpg
102.9335	1	C5	0	1	0.91249	sub-15_stim-commstruc_C5.jpg
104.9726	1	C4	0	1	0.74484	sub-15_stim-commstruc_C4.jpg
107.0118	1	C3	0	1	0.69956	sub-15_stim-commstruc_C3.jpg
111.0501	1	C2	0	1	0.72434	sub-15_stim-commstruc_C2.jpg
115.0883	1	C1	0	1	0.83727	sub-15_stim-commstruc_C1.jpg
117.1275	1	B5	0	1	0.74545	sub-15_stim-commstruc_B5.jpg
119.1666	1	B4	0	1	0.67145	sub-15_stim-commstruc_B4.jpg
121.2057	1	B3	0	1	1.1137	sub-15_stim-commstruc_B3.jpg
123.2449	1	B2	0	1	0.97629	sub-15_stim-commstruc_B2.jpg
129.2823	1	B1	0	1	0.88503	sub-15_stim-commstruc_B1.jpg
133.3206	1	A5	0	1	0.86067	sub-15_stim-commstruc_A5.jpg
135.3597	1	A4	0	1	0.90528	sub-15_stim-commstruc_A4.jpg
137.3988	1	A3	0	1	0.95363	sub-15_stim-commstruc_A3.jpg
141.4371	1	A2	90	1	1.2099	sub-15_stim-commstruc_A2.jpg
143.4762	1	A1	0	1	0.82537	sub-15_stim-commstruc_A1.jpg
149.5137	1	C5	0	1	1.1337	sub-15_stim-commstruc_C5.jpg
155.5511	1	C2	0	1	0.79	sub-15_stim-commstruc_C2.jpg
157.5902	1	C3	90	1	0.83455	sub-15_stim-commstruc_C3.jpg
159.6294	1	C5	0	1	0.84137	sub-15_stim-commstruc_C5.jpg
163.6676	1	C2	0	1	0.68535	sub-15_stim-commstruc_C2.jpg
165.7068	1	C1	0	1	0.85868	sub-15_stim-commstruc_C1.jpg
167.7459	1	C3	0	1	0.79763	sub-15_stim-commstruc_C3.jpg
173.7833	1	C1	0	1	0.77746	sub-15_stim-commstruc_C1.jpg
177.8216	1	C2	0	1	0.70484	sub-15_stim-commstruc_C2.jpg
179.8607	1	C3	0	1	0.69861	sub-15_stim-commstruc_C3.jpg
185.8982	1	C4	0	0	0.95488	sub-15_stim-commstruc_C4.jpg
191.9356	1	C2	0	1	0.75189	sub-15_stim-commstruc_C2.jpg
195.9739	1	C1	0	1	0.7859	sub-15_stim-commstruc_C1.jpg
198.013	1	C4	0	1	0.68951	sub-15_stim-commstruc_C4.jpg
204.0505	1	C5	0	1	0.91685	sub-15_stim-commstruc_C5.jpg
208.0887	1	C2	90	1	0.94172	sub-15_stim-commstruc_C2.jpg
210.1279	1	C1	0	1	0.93686	sub-15_stim-commstruc_C1.jpg
212.167	1	B5	0	1	0.91249	sub-15_stim-commstruc_B5.jpg
214.2061	1	B4	0	1	0.85648	sub-15_stim-commstruc_B4.jpg
216.2453	1	B3	0	1	0.79354	sub-15_stim-commstruc_B3.jpg
218.2844	1	B2	0	1	0.88966	sub-15_stim-commstruc_B2.jpg
222.3227	1	B1	0	1	0.70077	sub-15_stim-commstruc_B1.jpg
224.3618	1	A5	0	1	0.76466	sub-15_stim-commstruc_A5.jpg
226.4009	1	A4	0	1	0.9086	sub-15_stim-commstruc_A4.jpg
230.4392	1	A3	90	0	1.0895	sub-15_stim-commstruc_A3.jpg
234.4775	1	A2	0	1	0.80102	sub-15_stim-commstruc_A2.jpg
236.5166	1	A1	0	1	0.785	sub-15_stim-commstruc_A1.jpg
242.554	1	C5	0	1	0.94201	sub-15_stim-commstruc_C5.jpg
244.5932	1	C4	90	1	0.85436	sub-15_stim-commstruc_C4.jpg
248.6315	1	C3	90	1	0.83767	sub-15_stim-commstruc_C3.jpg
250.6706	1	C2	90	1	0.8947	sub-15_stim-commstruc_C2.jpg
252.7097	1	C3	0	1	0.90507	sub-15_stim-commstruc_C3.jpg
254.7488	1	C5	0	1	0.84196	sub-15_stim-commstruc_C5.jpg
258.7871	1	A1	0	1	0.86953	sub-15_stim-commstruc_A1.jpg
262.8254	1	A4	0	1	0.85383	sub-15_stim-commstruc_A4.jpg
268.8628	1	A2	0	1	0.92209	sub-15_stim-commstruc_A2.jpg
270.902	1	A3	0	1	0.88245	sub-15_stim-commstruc_A3.jpg
276.9394	1	A4	90	1	1.0764	sub-15_stim-commstruc_A4.jpg
280.9777	1	A5	0	1	0.93958	sub-15_stim-commstruc_A5.jpg
287.0151	1	A4	0	1	0.86297	sub-15_stim-commstruc_A4.jpg
289.0542	1	A2	0	1	0.78661	sub-15_stim-commstruc_A2.jpg
293.0925	1	A5	0	1	0.78617	sub-15_stim-commstruc_A5.jpg
297.1308	1	A4	0	1	0.76536	sub-15_stim-commstruc_A4.jpg
299.1699	1	A5	0	1	0.7571	sub-15_stim-commstruc_A5.jpg
303.2082	1	B1	0	1	0.75884	sub-15_stim-commstruc_B1.jpg
309.2456	1	B3	0	1	0.90585	sub-15_stim-commstruc_B3.jpg
313.2839	1	B4	90	1	0.93025	sub-15_stim-commstruc_B4.jpg
315.3231	1	B5	0	1	0.77312	sub-15_stim-commstruc_B5.jpg
321.3605	1	C1	0	1	0.94191	sub-15_stim-commstruc_C1.jpg
323.3996	1	C2	0	1	0.77728	sub-15_stim-commstruc_C2.jpg
329.437	1	C3	0	1	0.84101	sub-15_stim-commstruc_C3.jpg
331.4762	1	C4	0	1	0.77003	sub-15_stim-commstruc_C4.jpg
335.5145	1	C5	0	1	0.91513	sub-15_stim-commstruc_C5.jpg
339.5527	1	A1	0	1	0.74102	sub-15_stim-commstruc_A1.jpg
343.591	1	A2	0	1	0.75843	sub-15_stim-commstruc_A2.jpg
349.6284	1	A3	0	1	0.92257	sub-15_stim-commstruc_A3.jpg
355.6659	1	A4	0	1	0.83055	sub-15_stim-commstruc_A4.jpg
357.705	1	A5	0	1	0.77438	sub-15_stim-commstruc_A5.jpg
361.7433	1	B1	0	1	0.71149	sub-15_stim-commstruc_B1.jpg
367.7807	1	B2	0	1	0.86014	sub-15_stim-commstruc_B2.jpg
369.8198	1	B3	0	1	0.70739	sub-15_stim-commstruc_B3.jpg
371.859	1	B1	90	1	0.85294	sub-15_stim-commstruc_B1.jpg
375.8973	1	B3	0	1	0.75138	sub-15_stim-commstruc_B3.jpg
377.9364	1	B5	0	1	0.84462	sub-15_stim-commstruc_B5.jpg
381.9747	1	C1	0	1	0.87136	sub-15_stim-commstruc_C1.jpg
384.0138	1	C4	0	1	0.73086	sub-15_stim-commstruc_C4.jpg
388.0521	1	C1	90	1	1.0293	sub-15_stim-commstruc_C1.jpg
392.0904	1	C2	0	1	0.7747	sub-15_stim-commstruc_C2.jpg
398.1278	1	C5	0	1	0.97486	sub-15_stim-commstruc_C5.jpg
404.1652	1	A1	0	1	0.69105	sub-15_stim-commstruc_A1.jpg
408.2035	1	C5	0	1	0.79466	sub-15_stim-commstruc_C5.jpg
410.2426	1	A1	0	1	0.77117	sub-15_stim-commstruc_A1.jpg
414.2809	1	A3	0	1	0.8789	sub-15_stim-commstruc_A3.jpg
416.32	1	A4	0	1	0.83951	sub-15_stim-commstruc_A4.jpg
420.3583	1	A5	0	1	0.84731	sub-15_stim-commstruc_A5.jpg
422.3975	1	B1	0	1	0.7393	sub-15_stim-commstruc_B1.jpg
426.4357	1	A5	0	1	0.6749	sub-15_stim-commstruc_A5.jpg
432.4732	1	A4	90	1	0.87645	sub-15_stim-commstruc_A4.jpg
434.5123	1	A3	90	1	1.0005	sub-15_stim-commstruc_A3.jpg
436.5514	1	A2	90	1	1.0815	sub-15_stim-commstruc_A2.jpg
438.5906	1	A1	0	1	0.71965	sub-15_stim-commstruc_A1.jpg
440.6297	1	C5	0	1	0.87991	sub-15_stim-commstruc_C5.jpg
446.6671	1	C4	0	1	0.72265	sub-15_stim-commstruc_C4.jpg
448.7062	1	C3	0	1	0.87627	sub-15_stim-commstruc_C3.jpg
454.7437	1	C2	90	1	0.81621	sub-15_stim-commstruc_C2.jpg
460.7811	1	C1	0	1	1.6569	sub-15_stim-commstruc_C1.jpg
464.8194	1	B5	0	1	1.3464	sub-15_stim-commstruc_B5.jpg
466.8585	1	B4	0	1	0.73115	sub-15_stim-commstruc_B4.jpg
472.8959	1	B3	0	1	0.81561	sub-15_stim-commstruc_B3.jpg
478.9334	1	B2	0	1	0.84788	sub-15_stim-commstruc_B2.jpg
482.9717	1	B1	0	1	0.82018	sub-15_stim-commstruc_B1.jpg
489.0091	1	B3	90	1	0.8316	sub-15_stim-commstruc_B3.jpg
493.0474	1	B5	0	1	0.76833	sub-15_stim-commstruc_B5.jpg
497.0856	1	B2	0	1	0.71494	sub-15_stim-commstruc_B2.jpg
501.1239	1	B1	0	1	0.88308	sub-15_stim-commstruc_B1.jpg
505.1622	1	B2	0	1	0.69404	sub-15_stim-commstruc_B2.jpg
509.2005	1	B4	0	1	0.66185	sub-15_stim-commstruc_B4.jpg
513.2388	1	B3	0	1	0.65477	sub-15_stim-commstruc_B3.jpg
515.2779	1	B5	0	1	0.66634	sub-15_stim-commstruc_B5.jpg
519.3162	1	B4	0	1	0.62619	sub-15_stim-commstruc_B4.jpg
523.3545	1	B2	0	1	0.69297	sub-15_stim-commstruc_B2.jpg
529.3919	1	B4	0	1	0.88681	sub-15_stim-commstruc_B4.jpg
533.4302	1	B3	0	1	0.79891	sub-15_stim-commstruc_B3.jpg
539.4676	1	B2	0	1	0.738	sub-15_stim-commstruc_B2.jpg
541.5067	1	B3	0	1	0.67015	sub-15_stim-commstruc_B3.jpg
543.5459	1	B2	0	1	0.6786	sub-15_stim-commstruc_B2.jpg
545.585	1	B3	0	1	0.65326	sub-15_stim-commstruc_B3.jpg
549.6233	1	B4	0	1	0.71857	sub-15_stim-commstruc_B4.jpg
555.6607	1	B5	0	1	0.82737	sub-15_stim-commstruc_B5.jpg
561.6981	1	C1	0	1	0.90018	sub-15_stim-commstruc_C1.jpg
565.7364	1	C2	0	1	0.64663	sub-15_stim-commstruc_C2.jpg
569.7747	1	C3	0	1	0.67939	sub-15_stim-commstruc_C3.jpg
573.813	1	C4	0	1	0.81196	sub-15_stim-commstruc_C4.jpg
575.8521	1	C5	0	1	0.96281	sub-15_stim-commstruc_C5.jpg
579.8904	1	A1	90	1	0.97301	sub-15_stim-commstruc_A1.jpg
585.9278	1	A2	0	1	0.99232	sub-15_stim-commstruc_A2.jpg
587.9669	1	A3	0	1	0.87954	sub-15_stim-commstruc_A3.jpg
594.0044	1	A4	0	1	1.13	sub-15_stim-commstruc_A4.jpg
600.0418	1	A5	0	1	0.81944	sub-15_stim-commstruc_A5.jpg
604.0801	1	B1	90	1	0.82951	sub-15_stim-commstruc_B1.jpg
610.1175	1	B2	0	1	0.80918	sub-15_stim-commstruc_B2.jpg
