onset	duration	item	rotation	accuracy	reaction_time	stim_file
10.0145	1	A3	0	1	0.87303	sub-15_stim-commstruc_A3.jpg
12.0537	1	A1	0	1	0.65599	sub-15_stim-commstruc_A1.jpg
18.0911	1	A4	0	1	0.8102	sub-15_stim-commstruc_A4.jpg
24.1285	1	A3	0	1	0.62766	sub-15_stim-commstruc_A3.jpg
28.1668	1	A1	0	1	0.66373	sub-15_stim-commstruc_A1.jpg
30.206	1	C5	0	1	0.96777	sub-15_stim-commstruc_C5.jpg
34.2442	1	C4	0	1	0.84282	sub-15_stim-commstruc_C4.jpg
40.2817	1	C3	0	1	0.82626	sub-15_stim-commstruc_C3.jpg
42.3208	1	C2	90	1	0.93974	sub-15_stim-commstruc_C2.jpg
44.3599	1	C1	0	1	0.81358	sub-15_stim-commstruc_C1.jpg
46.3991	1	B5	0	1	0.7489	sub-15_stim-commstruc_B5.jpg
48.4382	1	B4	0	1	0.72811	sub-15_stim-commstruc_B4.jpg
50.4773	1	B3	0	1	0.7207	sub-15_stim-commstruc_B3.jpg
52.5164	1	B2	0	1	0.89924	sub-15_stim-commstruc_B2.jpg
56.5547	1	B1	90	1	0.92319	sub-15_stim-commstruc_B1.jpg
62.5922	1	A5	0	1	0.89339	sub-15_stim-commstruc_A5.jpg
68.6296	1	A4	0	1	0.84092	sub-15_stim-commstruc_A4.jpg
74.667	1	A3	0	1	0.82855	sub-15_stim-commstruc_A3.jpg
76.7061	1	A2	0	1	0.8127	sub-15_stim-commstruc_A2.jpg
80.7444	1	A1	0	1	0.69956	sub-15_stim-commstruc_A1.jpg
82.7836	1	C5	0	1	0.87681	sub-15_stim-commstruc_C5.jpg
88.821	1	C3	0	1	0.75285	sub-15_stim-commstruc_C3.jpg
92.8593	1	C4	90	1	0.85762	sub-15_stim-commstruc_C4.jpg
98.8967	1	C3	0	1	0.70732	sub-15_stim-commstruc_C3.jpg
104.9341	1	C2	0	1	0.84893	sub-15_stim-commstruc_C2.jpg
108.9724	1	C4	0	1	0.72795	sub-15_stim-commstruc_C4.jpg
113.0107	1	C2	0	1	0.68413	sub-15_stim-commstruc_C2.jpg
117.049	1	C4	0	1	0.70925	sub-15_stim-commstruc_C4.jpg
119.0881	1	C2	0	1	0.74031	sub-15_stim-commstruc_C2.jpg
125.1255	1	C1	0	1	0.90554	sub-15_stim-commstruc_C1.jpg
127.1647	1	C4	0	1	0.71955	sub-15_stim-commstruc_C4.jpg
131.2029	1	C3	0	1	0.72299	sub-15_stim-commstruc_C3.jpg
135.2412	1	C1	0	1	0.80486	sub-15_stim-commstruc_C1.jpg
141.2786	1	B5	0	1	0.77567	sub-15_stim-commstruc_B5.jpg
145.3169	1	C1	0	1	0.69813	sub-15_stim-commstruc_C1.jpg
151.3544	1	B5	0	1	0.7544	sub-15_stim-commstruc_B5.jpg
157.3918	1	B4	0	1	0.77309	sub-15_stim-commstruc_B4.jpg
159.4309	1	B3	0	1	0.73541	sub-15_stim-commstruc_B3.jpg
165.4683	1	B2	0	1	0.80139	sub-15_stim-commstruc_B2.jpg
171.5058	1	B1	0	1	0.74032	sub-15_stim-commstruc_B1.jpg
175.5441	1	A5	0	1	0.78843	sub-15_stim-commstruc_A5.jpg
179.5823	1	A4	0	1	0.78147	sub-15_stim-commstruc_A4.jpg
181.6215	1	A3	0	1	0.67872	sub-15_stim-commstruc_A3.jpg
183.6606	1	A2	0	1	0.77582	sub-15_stim-commstruc_A2.jpg
189.698	1	A1	0	1	0.8021	sub-15_stim-commstruc_A1.jpg
193.7363	1	C5	0	1	0.97482	sub-15_stim-commstruc_C5.jpg
195.7754	1	C4	0	1	0.70121	sub-15_stim-commstruc_C4.jpg
199.8137	1	C3	0	1	0.74597	sub-15_stim-commstruc_C3.jpg
203.852	1	C2	0	1	0.76151	sub-15_stim-commstruc_C2.jpg
207.8903	1	C1	0	1	0.9629	sub-15_stim-commstruc_C1.jpg
211.9286	1	C3	0	1	0.66858	sub-15_stim-commstruc_C3.jpg
213.9677	1	C4	0	1	0.6775	sub-15_stim-commstruc_C4.jpg
216.0068	1	C5	0	1	0.71713	sub-15_stim-commstruc_C5.jpg
220.0451	1	C2	0	1	0.72083	sub-15_stim-commstruc_C2.jpg
224.0834	1	C3	0	1	0.67361	sub-15_stim-commstruc_C3.jpg
226.2291	1	C4	0	1	0.64062	sub-15_stim-commstruc_C4.jpg
228.2683	1	C1	0	1	0.65663	sub-15_stim-commstruc_C1.jpg
232.3065	1	C4	0	1	0.66823	sub-15_stim-commstruc_C4.jpg
234.3457	1	C5	0	1	0.8105	sub-15_stim-commstruc_C5.jpg
236.3848	1	A1	90	1	1.0374	sub-15_stim-commstruc_A1.jpg
240.4231	1	A3	0	1	0.88718	sub-15_stim-commstruc_A3.jpg
244.4614	1	A5	0	1	0.70561	sub-15_stim-commstruc_A5.jpg
248.4997	1	B1	0	1	0.89126	sub-15_stim-commstruc_B1.jpg
254.5371	1	B4	0	1	0.72546	sub-15_stim-commstruc_B4.jpg
256.5762	1	B3	0	1	0.74918	sub-15_stim-commstruc_B3.jpg
262.6136	1	B2	0	1	0.73785	sub-15_stim-commstruc_B2.jpg
268.6511	1	B1	0	1	0.89883	sub-15_stim-commstruc_B1.jpg
270.6902	1	A5	0	1	0.74935	sub-15_stim-commstruc_A5.jpg
272.7293	1	A4	0	1	0.96384	sub-15_stim-commstruc_A4.jpg
278.7668	1	A3	0	1	0.85538	sub-15_stim-commstruc_A3.jpg
280.8059	1	A2	0	1	0.77762	sub-15_stim-commstruc_A2.jpg
284.8442	1	A1	0	1	0.79494	sub-15_stim-commstruc_A1.jpg
290.8816	1	C5	0	1	0.88408	sub-15_stim-commstruc_C5.jpg
294.9199	1	C4	0	1	0.82322	sub-15_stim-commstruc_C4.jpg
298.9582	1	C3	0	1	0.88072	sub-15_stim-commstruc_C3.jpg
300.9973	1	C2	0	1	1.0415	sub-15_stim-commstruc_C2.jpg
305.0356	1	C1	90	0	0.97963	sub-15_stim-commstruc_C1.jpg
309.0739	1	B5	0	1	0.7462	sub-15_stim-commstruc_B5.jpg
311.113	1	B4	0	1	0.8274	sub-15_stim-commstruc_B4.jpg
313.1521	1	B3	0	1	0.68415	sub-15_stim-commstruc_B3.jpg
317.1904	1	B5	0	1	0.71822	sub-15_stim-commstruc_B5.jpg
321.2287	1	B2	90	1	0.95212	sub-15_stim-commstruc_B2.jpg
323.2678	1	B3	90	1	0.9931	sub-15_stim-commstruc_B3.jpg
327.3061	1	B1	0	1	1.0536	sub-15_stim-commstruc_B1.jpg
329.3452	1	A5	0	1	0.83023	sub-15_stim-commstruc_A5.jpg
331.3844	1	A2	90	1	0.90925	sub-15_stim-commstruc_A2.jpg
335.4226	1	A3	0	1	0.92833	sub-15_stim-commstruc_A3.jpg
337.4618	1	A2	0	1	0.75878	sub-15_stim-commstruc_A2.jpg
343.4992	1	A5	0	1	0.77978	sub-15_stim-commstruc_A5.jpg
347.5375	1	A3	0	1	0.79824	sub-15_stim-commstruc_A3.jpg
349.5766	1	A1	0	1	0.85171	sub-15_stim-commstruc_A1.jpg
355.614	1	A2	0	1	0.74988	sub-15_stim-commstruc_A2.jpg
361.6515	1	A4	0	1	0.74032	sub-15_stim-commstruc_A4.jpg
367.6889	1	A2	0	1	0.67623	sub-15_stim-commstruc_A2.jpg
369.728	1	A5	0	1	0.66042	sub-15_stim-commstruc_A5.jpg
373.7663	1	B1	90	1	0.83005	sub-15_stim-commstruc_B1.jpg
379.8037	1	B2	0	1	0.72959	sub-15_stim-commstruc_B2.jpg
381.8429	1	B3	0	1	1.0017	sub-15_stim-commstruc_B3.jpg
383.882	1	B4	0	1	0.81119	sub-15_stim-commstruc_B4.jpg
385.9211	1	B5	0	1	0.74259	sub-15_stim-commstruc_B5.jpg
391.9586	1	C1	0	0	1.1348	sub-15_stim-commstruc_C1.jpg
393.9977	1	C2	0	1	0.17575	sub-15_stim-commstruc_C2.jpg
398.036	1	C3	0	1	0.79392	sub-15_stim-commstruc_C3.jpg
404.0734	1	C4	0	1	0.79024	sub-15_stim-commstruc_C4.jpg
410.1108	1	C5	0	1	0.96006	sub-15_stim-commstruc_C5.jpg
416.1483	1	A1	0	1	0.76959	sub-15_stim-commstruc_A1.jpg
420.1865	1	A2	0	1	0.84208	sub-15_stim-commstruc_A2.jpg
424.2248	1	A3	0	1	0.84324	sub-15_stim-commstruc_A3.jpg
428.2631	1	A4	0	1	1.1105	sub-15_stim-commstruc_A4.jpg
432.3014	1	A5	90	1	0.92852	sub-15_stim-commstruc_A5.jpg
436.3397	1	A4	0	1	0.61664	sub-15_stim-commstruc_A4.jpg
440.3779	1	A3	0	1	1.2201	sub-15_stim-commstruc_A3.jpg
444.4162	1	A1	0	1	0.75755	sub-15_stim-commstruc_A1.jpg
450.4537	1	A4	0	1	0.68073	sub-15_stim-commstruc_A4.jpg
456.4911	1	A3	0	1	0.76228	sub-15_stim-commstruc_A3.jpg
460.5294	1	A4	0	1	0.78666	sub-15_stim-commstruc_A4.jpg
462.5685	1	A1	90	1	1.078	sub-15_stim-commstruc_A1.jpg
464.6076	1	A4	0	1	0.68517	sub-15_stim-commstruc_A4.jpg
468.6459	1	A5	0	1	0.78189	sub-15_stim-commstruc_A5.jpg
470.685	1	A3	90	1	1.0293	sub-15_stim-commstruc_A3.jpg
474.7233	1	A1	0	1	0.82717	sub-15_stim-commstruc_A1.jpg
480.7607	1	A3	0	1	1.2558	sub-15_stim-commstruc_A3.jpg
484.799	1	A1	0	1	0.71712	sub-15_stim-commstruc_A1.jpg
488.8373	1	A4	0	1	0.78258	sub-15_stim-commstruc_A4.jpg
494.8747	1	A5	0	1	0.73785	sub-15_stim-commstruc_A5.jpg
496.9139	1	A4	0	1	0.70964	sub-15_stim-commstruc_A4.jpg
498.953	1	A3	90	1	0.94056	sub-15_stim-commstruc_A3.jpg
500.9921	1	A2	0	1	0.80683	sub-15_stim-commstruc_A2.jpg
503.0312	1	A1	0	1	0.70919	sub-15_stim-commstruc_A1.jpg
507.0695	1	C5	0	1	0.88816	sub-15_stim-commstruc_C5.jpg
509.1087	1	C4	0	1	0.7057	sub-15_stim-commstruc_C4.jpg
511.1478	1	C3	0	1	0.73097	sub-15_stim-commstruc_C3.jpg
515.1861	1	C2	0	1	0.82133	sub-15_stim-commstruc_C2.jpg
517.2252	1	C1	0	1	0.82757	sub-15_stim-commstruc_C1.jpg
521.2635	1	B5	90	1	0.90435	sub-15_stim-commstruc_B5.jpg
527.3009	1	B4	0	1	0.71239	sub-15_stim-commstruc_B4.jpg
533.3384	1	B3	0	1	0.9784	sub-15_stim-commstruc_B3.jpg
535.3775	1	B2	0	1	0.82718	sub-15_stim-commstruc_B2.jpg
539.4158	1	B1	0	1	0.75853	sub-15_stim-commstruc_B1.jpg
541.4549	1	A5	0	1	0.81462	sub-15_stim-commstruc_A5.jpg
545.4932	1	A3	0	1	1.1065	sub-15_stim-commstruc_A3.jpg
549.5315	1	A4	0	1	0.99246	sub-15_stim-commstruc_A4.jpg
551.5706	1	A3	90	1	1.0998	sub-15_stim-commstruc_A3.jpg
555.6089	1	A1	0	1	0.86906	sub-15_stim-commstruc_A1.jpg
559.6471	1	A2	0	1	0.86144	sub-15_stim-commstruc_A2.jpg
565.6846	1	A5	0	1	0.82518	sub-15_stim-commstruc_A5.jpg
569.7228	1	B1	0	1	0.72345	sub-15_stim-commstruc_B1.jpg
571.762	1	B4	0	1	0.67715	sub-15_stim-commstruc_B4.jpg
573.8011	1	B5	0	1	0.796	sub-15_stim-commstruc_B5.jpg
575.8403	1	B2	0	1	0.76475	sub-15_stim-commstruc_B2.jpg
579.8785	1	B4	0	1	0.68694	sub-15_stim-commstruc_B4.jpg
583.9168	1	B1	0	1	0.73611	sub-15_stim-commstruc_B1.jpg
589.9542	1	B4	0	1	0.70811	sub-15_stim-commstruc_B4.jpg
595.9917	1	B3	0	1	0.72718	sub-15_stim-commstruc_B3.jpg
598.0308	1	B5	0	1	0.93433	sub-15_stim-commstruc_B5.jpg
600.0699	1	B4	0	1	0.64942	sub-15_stim-commstruc_B4.jpg
602.1091	1	B3	0	1	0.66673	sub-15_stim-commstruc_B3.jpg
606.1473	1	B2	0	1	0.75533	sub-15_stim-commstruc_B2.jpg
608.1865	1	B1	0	1	0.76277	sub-15_stim-commstruc_B1.jpg
614.2239	1	A5	90	1	0.93501	sub-15_stim-commstruc_A5.jpg
