onset	duration	item	rotation	accuracy	reaction_time
10.0872	1	C1	0	n/a	n/a
14.1255	1	C3	0	1	1.2698
18.1638	1	C5	0	1	0.64778
20.2029	1	C4	0	1	1.0282
26.2403	1	C3	0	1	1.0524
28.2794	1	C4	0	1	0.83692
32.3177	1	C2	0	1	1.0803
34.3435	1	C1	0	1	0.99752
40.3809	1	C3	0	1	1.1044
42.4201	1	C5	0	1	1.1285
48.4575	1	C4	0	1	0.92556
54.4949	1	C1	90	n/a	n/a
58.5332	1	C2	0	1	0.95294
60.5724	1	C4	0	1	0.90609
62.6115	1	C5	0	1	0.92295
68.6489	1	A1	0	1	1.1962
70.688	1	A2	0	n/a	n/a
74.7263	1	A3	0	1	1.1364
76.7655	1	A4	0	1	0.96663
78.8046	1	A5	0	1	0.84763
84.842	1	B1	0	1	1.0283
90.8794	1	B2	0	1	0.88497
96.9169	1	B3	0	1	1.114
100.9551	1	B4	0	1	1.0282
106.9926	1	B5	0	1	1.0686
109.0317	1	C1	0	1	0.77257
115.0691	1	C2	0	1	1.2485
119.1074	1	C3	0	1	0.76084
121.1465	1	C4	90	1	1.0443
123.1857	1	C5	0	1	0.77284
127.2239	1	C2	0	1	0.85385
133.2614	1	C4	0	1	0.94397
135.3005	1	C5	0	1	0.64047
141.3379	1	C3	0	1	0.76932
147.3754	1	C1	0	1	0.89273
151.4137	1	B5	0	1	0.70951
157.4511	1	B4	0	n/a	n/a
163.4885	1	B5	0	1	0.65455
165.5276	1	C1	0	1	0.71561
169.5659	1	B5	0	1	0.79164
173.6042	1	B4	0	1	0.80826
175.6433	1	B3	0	1	0.90775
181.6807	1	B4	0	1	0.79655
183.7199	1	B2	0	1	0.90065
185.759	1	B5	90	1	1.0684
191.7964	1	B4	0	1	0.83454
195.8347	1	B3	0	1	0.89758
199.873	1	B2	90	1	0.92549
203.9113	1	B1	0	1	0.76586
205.9504	1	A5	0	1	0.8302
207.9895	1	A4	0	1	0.92661
210.0287	1	A3	0	1	1.1288
216.0661	1	A2	0	n/a	n/a
220.1044	1	A1	0	1	0.77387
222.1435	1	C5	90	1	1.1649
224.1826	1	C4	0	1	0.86983
230.2201	1	C3	0	1	0.95915
234.2584	1	C2	90	n/a	n/a
236.2975	1	C1	90	0	0.82643
240.3358	1	B5	90	0	0.74325
244.374	1	B3	90	1	1.0484
248.4123	1	B1	90	1	0.95155
254.4497	1	B3	0	1	0.99601
256.4889	1	B4	0	1	1.1172
258.528	1	B2	0	1	0.73433
264.5654	1	B3	0	1	0.75017
268.6037	1	B5	0	1	1.2491
272.642	1	C1	0	1	0.7707
274.6811	1	C3	0	1	0.86723
276.7203	1	C2	0	1	1.0443
278.7594	1	C1	0	1	1.0362
284.7968	1	C4	0	1	0.79351
286.836	1	C3	0	1	0.81658
290.8742	1	C4	0	n/a	n/a
292.9134	1	C1	0	1	1.2193
296.9516	1	C2	0	n/a	n/a
302.9891	1	C3	0	1	0.86213
307.0274	1	C4	0	1	0.66616
313.0648	1	C5	0	1	0.75771
319.1022	1	A1	0	1	0.87036
323.1405	1	A2	0	1	1.0965
329.1779	1	A3	0	1	1.0283
333.2162	1	A4	0	1	0.82069
337.2545	1	A5	0	1	0.92462
343.2919	1	B1	0	1	0.76035
349.3293	1	B2	0	1	0.81184
355.3668	1	B3	90	1	1.0283
357.4059	1	B4	90	1	1.1527
359.445	1	B5	0	1	1.169
361.4841	1	C1	0	n/a	n/a
365.5224	1	B5	0	1	0.49172
367.5616	1	B2	90	1	0.87451
371.5998	1	B5	0	1	0.62068
375.6381	1	C1	0	0	0.46362
379.6764	1	B5	0	1	0.59203
385.7138	1	C1	0	1	0.85885
389.7521	1	C4	0	1	0.86737
395.7895	1	C3	0	1	0.82195
397.8287	1	C2	0	1	1.0285
401.8669	1	C3	0	1	0.97709
407.9044	1	C5	90	0	0.99675
409.9435	1	C3	0	1	0.74291
413.9818	1	C1	0	n/a	n/a
416.0209	1	B5	90	1	1.0889
420.0592	1	C1	0	1	0.803
422.0983	1	B5	90	1	0.98761
426.1366	1	B4	0	1	0.91596
430.1749	1	B3	0	1	1.1012
432.214	1	B2	0	1	0.87241
434.2531	1	B1	0	1	0.88084
436.2923	1	A5	0	1	1.0283
440.3306	1	A4	90	n/a	n/a
442.3697	1	A3	0	1	0.87628
448.4071	1	A2	0	1	1.173
452.4454	1	A1	0	1	0.93736
454.4845	1	C5	0	1	0.71986
458.5228	1	C4	0	1	1.0282
460.5619	1	C3	90	1	1.1732
464.6002	1	C2	0	1	0.84468
466.6394	1	C1	0	1	0.86858
468.6785	1	C2	0	1	0.87184
472.7168	1	C5	0	1	1.0728
474.7559	1	A1	0	1	0.69892
476.795	1	A3	0	1	1.0403
480.8333	1	A4	0	1	0.82053
484.8716	1	A3	0	1	1.1178
488.9099	1	A2	0	1	1.0485
494.9473	1	A5	0	1	0.78569
496.9864	1	A2	0	1	0.93731
499.0256	1	A3	0	1	0.90945
505.063	1	A5	0	1	0.76424
511.1004	1	A4	0	1	0.91408
513.1395	1	A5	0	1	1.0728
515.1787	1	A3	0	1	0.89172
517.2178	1	A1	0	1	0.61873
521.2561	1	C5	0	1	0.831
525.2944	1	C4	0	1	0.76575
527.3335	1	C3	0	1	0.78993
531.3718	1	C2	0	1	0.72161
535.4101	1	C1	90	0	0.57206
539.4483	1	B5	0	1	0.74267
543.4866	1	B4	0	1	1.141
549.5241	1	B3	0	1	1.0323
553.5623	1	B2	0	1	0.72218
559.5997	1	B1	0	1	0.89225
561.6389	1	A5	90	0	0.74942
565.6772	1	A4	90	0	0.77752
567.7163	1	A3	0	1	0.81869
571.7546	1	A2	0	1	0.93958
575.7929	1	A1	0	1	0.74635
577.832	1	A2	0	1	0.88413
583.8694	1	A5	0	1	0.65443
587.9077	1	A4	0	1	0.71421
593.9451	1	A3	0	1	0.72219
597.9834	1	A5	0	1	0.92517
600.0225	1	A4	0	1	0.63842
604.0608	1	A1	0	1	0.72999
608.0991	1	A3	0	1	0.56061
612.1374	1	A2	0	1	0.55658
614.1765	1	A3	90	1	0.93296
