onset	duration	item	rotation	accuracy	reaction_time	stim_file
10.0189	1	A5	90	0	1.2418	sub-14_stim-commstruc_A5.jpg
14.0572	1	A3	90	1	1.1714	sub-14_stim-commstruc_A3.jpg
20.0946	1	A1	0	1	0.99171	sub-14_stim-commstruc_A1.jpg
26.1321	1	A4	0	1	0.95438	sub-14_stim-commstruc_A4.jpg
28.1712	1	A2	0	1	1.0283	sub-14_stim-commstruc_A2.jpg
30.2103	1	A1	0	1	0.64928	sub-14_stim-commstruc_A1.jpg
34.2486	1	C5	0	1	0.97983	sub-14_stim-commstruc_C5.jpg
38.2869	1	C4	0	1	0.81603	sub-14_stim-commstruc_C4.jpg
44.3243	1	C3	0	1	0.80912	sub-14_stim-commstruc_C3.jpg
46.3768	1	C2	0	1	0.72413	sub-14_stim-commstruc_C2.jpg
52.4142	1	C1	0	1	0.65318	sub-14_stim-commstruc_C1.jpg
58.4516	1	B5	0	1	0.76235	sub-14_stim-commstruc_B5.jpg
60.4908	1	B4	0	1	0.57064	sub-14_stim-commstruc_B4.jpg
66.5282	1	B3	0	1	0.89367	sub-14_stim-commstruc_B3.jpg
72.5656	1	B2	0	1	0.62294	sub-14_stim-commstruc_B2.jpg
78.603	1	B1	0	1	0.75529	sub-14_stim-commstruc_B1.jpg
82.6413	1	A5	90	0	0.68374	sub-14_stim-commstruc_A5.jpg
84.6805	1	A4	0	1	0.66777	sub-14_stim-commstruc_A4.jpg
86.7196	1	A3	90	0	0.65511	sub-14_stim-commstruc_A3.jpg
90.7579	1	A2	0	1	1.0282	sub-14_stim-commstruc_A2.jpg
94.7962	1	A4	0	1	0.72989	sub-14_stim-commstruc_A4.jpg
96.8353	1	A2	0	1	0.73072	sub-14_stim-commstruc_A2.jpg
98.8744	1	A4	0	1	0.75453	sub-14_stim-commstruc_A4.jpg
102.9127	1	A2	0	1	0.75834	sub-14_stim-commstruc_A2.jpg
106.951	1	A4	0	1	0.63983	sub-14_stim-commstruc_A4.jpg
108.9901	1	A1	0	1	0.79057	sub-14_stim-commstruc_A1.jpg
115.0275	1	A3	0	1	0.81555	sub-14_stim-commstruc_A3.jpg
119.0658	1	A1	0	1	0.58536	sub-14_stim-commstruc_A1.jpg
125.1032	1	A2	0	1	0.68449	sub-14_stim-commstruc_A2.jpg
127.1424	1	A4	0	1	0.65614	sub-14_stim-commstruc_A4.jpg
129.1815	1	A3	0	1	0.65634	sub-14_stim-commstruc_A3.jpg
131.2206	1	A5	90	0	0.90485	sub-14_stim-commstruc_A5.jpg
137.2581	1	A2	0	0	1.0365	sub-14_stim-commstruc_A2.jpg
139.2972	1	A4	0	1	0.92501	sub-14_stim-commstruc_A4.jpg
143.3355	1	A5	0	1	0.66101	sub-14_stim-commstruc_A5.jpg
145.3746	1	A4	0	1	0.63757	sub-14_stim-commstruc_A4.jpg
151.412	1	A3	90	1	1.0981	sub-14_stim-commstruc_A3.jpg
155.4503	1	A2	0	1	0.69149	sub-14_stim-commstruc_A2.jpg
161.4877	1	A1	0	1	0.92514	sub-14_stim-commstruc_A1.jpg
165.526	1	C5	0	1	0.77375	sub-14_stim-commstruc_C5.jpg
167.5652	1	C4	90	0	0.79015	sub-14_stim-commstruc_C4.jpg
169.6043	1	C3	0	1	1.1997	sub-14_stim-commstruc_C3.jpg
173.6426	1	C2	0	1	1.1387	sub-14_stim-commstruc_C2.jpg
175.6817	1	C1	0	1	0.70937	sub-14_stim-commstruc_C1.jpg
181.7191	1	B5	0	1	0.66025	sub-14_stim-commstruc_B5.jpg
183.7583	1	B4	0	1	0.89414	sub-14_stim-commstruc_B4.jpg
187.7965	1	B3	90	0	0.54563	sub-14_stim-commstruc_B3.jpg
193.834	1	B2	0	1	0.69739	sub-14_stim-commstruc_B2.jpg
197.8723	1	B1	0	1	0.70979	sub-14_stim-commstruc_B1.jpg
199.9114	1	A5	0	1	0.70219	sub-14_stim-commstruc_A5.jpg
203.9497	1	A3	0	1	0.59916	sub-14_stim-commstruc_A3.jpg
205.9888	1	A1	0	1	0.95898	sub-14_stim-commstruc_A1.jpg
210.0271	1	A2	0	1	0.80818	sub-14_stim-commstruc_A2.jpg
214.0654	1	A3	0	1	0.61196	sub-14_stim-commstruc_A3.jpg
218.1036	1	A4	90	0	0.58243	sub-14_stim-commstruc_A4.jpg
224.1411	1	A5	0	1	0.97528	sub-14_stim-commstruc_A5.jpg
226.1802	1	A4	0	1	0.68855	sub-14_stim-commstruc_A4.jpg
230.4184	1	A5	0	1	0.75453	sub-14_stim-commstruc_A5.jpg
232.4575	1	B1	90	0	0.69834	sub-14_stim-commstruc_B1.jpg
236.4958	1	B4	0	1	1.0282	sub-14_stim-commstruc_B4.jpg
238.5349	1	B3	0	1	0.90185	sub-14_stim-commstruc_B3.jpg
242.5732	1	B4	0	1	0.62253	sub-14_stim-commstruc_B4.jpg
248.6106	1	B5	90	0	0.69039	sub-14_stim-commstruc_B5.jpg
252.6489	1	B3	0	1	1.0773	sub-14_stim-commstruc_B3.jpg
256.6872	1	B2	90	1	0.94954	sub-14_stim-commstruc_B2.jpg
260.7255	1	B3	90	0	1.1518	sub-14_stim-commstruc_B3.jpg
264.7638	1	B4	90	0	0.75295	sub-14_stim-commstruc_B4.jpg
266.8029	1	B5	0	1	0.77698	sub-14_stim-commstruc_B5.jpg
270.8412	1	C1	0	n/a	n/a	sub-14_stim-commstruc_C1.jpg
272.8803	1	C2	0	1	1.0856	sub-14_stim-commstruc_C2.jpg
274.9194	1	C3	0	1	0.69371	sub-14_stim-commstruc_C3.jpg
276.9586	1	C4	0	1	0.87146	sub-14_stim-commstruc_C4.jpg
280.9968	1	C5	0	1	0.67908	sub-14_stim-commstruc_C5.jpg
285.0351	1	A1	0	1	1.0651	sub-14_stim-commstruc_A1.jpg
287.0743	1	A2	0	1	0.92325	sub-14_stim-commstruc_A2.jpg
289.1134	1	A3	0	1	0.67388	sub-14_stim-commstruc_A3.jpg
293.1517	1	A4	0	1	0.8301	sub-14_stim-commstruc_A4.jpg
297.1899	1	A5	90	0	0.61559	sub-14_stim-commstruc_A5.jpg
301.2282	1	B1	0	1	0.6815	sub-14_stim-commstruc_B1.jpg
307.2657	1	B2	90	1	0.79452	sub-14_stim-commstruc_B2.jpg
313.3031	1	B4	0	1	0.97504	sub-14_stim-commstruc_B4.jpg
315.3289	1	B1	0	1	0.97886	sub-14_stim-commstruc_B1.jpg
321.3663	1	B4	0	1	1.1427	sub-14_stim-commstruc_B4.jpg
323.4055	1	B1	0	n/a	n/a	sub-14_stim-commstruc_B1.jpg
329.4429	1	B2	0	1	0.88361	sub-14_stim-commstruc_B2.jpg
331.482	1	B5	0	1	0.64293	sub-14_stim-commstruc_B5.jpg
335.5203	1	B4	90	0	0.62209	sub-14_stim-commstruc_B4.jpg
341.5577	1	B5	0	1	0.69626	sub-14_stim-commstruc_B5.jpg
345.596	1	B4	0	1	0.98418	sub-14_stim-commstruc_B4.jpg
347.6351	1	B5	90	0	1.0282	sub-14_stim-commstruc_B5.jpg
353.6726	1	B4	0	1	1.286	sub-14_stim-commstruc_B4.jpg
359.71	1	B2	90	1	0.95972	sub-14_stim-commstruc_B2.jpg
361.7491	1	B3	0	1	1.082	sub-14_stim-commstruc_B3.jpg
365.7874	1	B1	0	1	0.95268	sub-14_stim-commstruc_B1.jpg
369.8257	1	A5	0	1	0.62011	sub-14_stim-commstruc_A5.jpg
375.8631	1	A4	0	1	1.0283	sub-14_stim-commstruc_A4.jpg
379.9014	1	A3	0	1	1.0938	sub-14_stim-commstruc_A3.jpg
383.9397	1	A2	0	1	1.2831	sub-14_stim-commstruc_A2.jpg
385.9788	1	A1	0	1	0.67565	sub-14_stim-commstruc_A1.jpg
390.0171	1	C5	0	1	0.93945	sub-14_stim-commstruc_C5.jpg
396.0545	1	C4	0	1	0.81286	sub-14_stim-commstruc_C4.jpg
398.0936	1	C3	90	1	1.3516	sub-14_stim-commstruc_C3.jpg
402.1319	1	C2	0	1	0.77554	sub-14_stim-commstruc_C2.jpg
404.1711	1	C1	0	1	0.77639	sub-14_stim-commstruc_C1.jpg
410.2085	1	B5	0	1	0.76391	sub-14_stim-commstruc_B5.jpg
414.2468	1	B4	0	1	0.71836	sub-14_stim-commstruc_B4.jpg
420.2842	1	B3	0	1	1.0651	sub-14_stim-commstruc_B3.jpg
422.3233	1	B2	90	1	0.96044	sub-14_stim-commstruc_B2.jpg
426.3616	1	B1	0	1	0.65834	sub-14_stim-commstruc_B1.jpg
430.3999	1	A5	0	1	0.90291	sub-14_stim-commstruc_A5.jpg
432.439	1	A2	0	1	1.1103	sub-14_stim-commstruc_A2.jpg
434.4781	1	A5	0	1	0.71884	sub-14_stim-commstruc_A5.jpg
436.5173	1	A3	0	1	0.78435	sub-14_stim-commstruc_A3.jpg
440.5556	1	A4	0	1	0.60908	sub-14_stim-commstruc_A4.jpg
442.5947	1	A5	0	1	0.59287	sub-14_stim-commstruc_A5.jpg
446.633	1	B1	0	1	0.65379	sub-14_stim-commstruc_B1.jpg
452.6704	1	B4	0	1	0.71039	sub-14_stim-commstruc_B4.jpg
454.7095	1	B1	0	1	0.6493	sub-14_stim-commstruc_B1.jpg
456.7487	1	B4	0	1	0.79266	sub-14_stim-commstruc_B4.jpg
462.7861	1	B2	0	1	0.61195	sub-14_stim-commstruc_B2.jpg
468.8235	1	B5	0	1	0.72412	sub-14_stim-commstruc_B5.jpg
472.8618	1	B2	90	0	0.61676	sub-14_stim-commstruc_B2.jpg
476.9001	1	B4	90	0	0.6174	sub-14_stim-commstruc_B4.jpg
482.9375	1	B5	0	1	0.84378	sub-14_stim-commstruc_B5.jpg
486.9758	1	B2	0	1	0.66298	sub-14_stim-commstruc_B2.jpg
489.0149	1	B3	0	1	1.2382	sub-14_stim-commstruc_B3.jpg
493.0532	1	B4	0	1	0.89632	sub-14_stim-commstruc_B4.jpg
495.0923	1	B5	0	1	0.62437	sub-14_stim-commstruc_B5.jpg
501.1298	1	C1	0	1	0.45741	sub-14_stim-commstruc_C1.jpg
507.1672	1	C2	0	1	0.51933	sub-14_stim-commstruc_C2.jpg
513.2046	1	C3	0	1	0.88107	sub-14_stim-commstruc_C3.jpg
515.2437	1	C4	0	1	0.60001	sub-14_stim-commstruc_C4.jpg
517.2829	1	C5	0	1	0.64186	sub-14_stim-commstruc_C5.jpg
523.3203	1	A1	0	1	0.70168	sub-14_stim-commstruc_A1.jpg
525.3594	1	A2	0	1	0.077029	sub-14_stim-commstruc_A2.jpg
527.3986	1	A3	0	0	1.0282	sub-14_stim-commstruc_A3.jpg
529.4377	1	A4	90	0	0.50197	sub-14_stim-commstruc_A4.jpg
533.476	1	A5	0	1	0.63174	sub-14_stim-commstruc_A5.jpg
539.5134	1	B1	90	0	1.6589	sub-14_stim-commstruc_B1.jpg
545.5508	1	B2	0	1	0.95623	sub-14_stim-commstruc_B2.jpg
547.59	1	B3	0	1	0.97657	sub-14_stim-commstruc_B3.jpg
551.6283	1	B2	0	n/a	n/a	sub-14_stim-commstruc_B2.jpg
557.6657	1	B3	0	1	0.85872	sub-14_stim-commstruc_B3.jpg
561.704	1	B1	0	1	0.70965	sub-14_stim-commstruc_B1.jpg
563.7431	1	B4	0	1	0.87059	sub-14_stim-commstruc_B4.jpg
565.7822	1	B2	0	1	0.62374	sub-14_stim-commstruc_B2.jpg
567.8214	1	B4	0	1	0.55313	sub-14_stim-commstruc_B4.jpg
571.8596	1	B1	0	1	1.0652	sub-14_stim-commstruc_B1.jpg
575.8979	1	A5	0	1	0.53083	sub-14_stim-commstruc_A5.jpg
581.9354	1	B1	90	0	0.55603	sub-14_stim-commstruc_B1.jpg
583.9745	1	B2	0	1	0.94915	sub-14_stim-commstruc_B2.jpg
586.0136	1	B4	90	0	0.82161	sub-14_stim-commstruc_B4.jpg
590.0519	1	B3	0	1	0.86646	sub-14_stim-commstruc_B3.jpg
592.091	1	B5	0	1	0.85136	sub-14_stim-commstruc_B5.jpg
596.1293	1	B2	0	1	0.5964	sub-14_stim-commstruc_B2.jpg
598.1684	1	B3	0	1	1.1477	sub-14_stim-commstruc_B3.jpg
600.2076	1	B4	0	1	1.4135	sub-14_stim-commstruc_B4.jpg
604.2458	1	B5	90	1	1.5819	sub-14_stim-commstruc_B5.jpg
608.2841	1	C1	0	0	0.8889	sub-14_stim-commstruc_C1.jpg
612.3224	1	C2	0	1	0.69903	sub-14_stim-commstruc_C2.jpg
