onset	duration	item	rotation	accuracy	reaction_time
10.0908	1	A4	0	1	1.0448
14.1291	1	A5	0	1	0.67512
16.1682	1	A3	0	1	0.88135
18.2073	1	A4	0	1	0.86889
20.2465	1	A1	0	1	0.78173
26.2839	1	A4	0	1	0.72633
32.3213	1	A3	0	1	1.6262
36.3596	1	A2	0	1	0.90843
40.3979	1	A3	0	0	1.0293
42.437	1	A2	0	1	0.90021
44.4762	1	A5	0	1	0.79795
48.5144	1	A3	0	1	0.92028
50.5536	1	A5	0	1	0.73866
56.591	1	A3	0	1	0.85353
58.6301	1	A5	90	1	0.99708
60.6692	1	A4	90	1	1.2199
64.7075	1	A3	0	1	0.85441
66.7467	1	A2	0	1	0.67092
70.7849	1	A1	90	0	0.94491
76.8224	1	C5	90	1	1.1881
80.8606	1	C4	0	1	0.99967
82.8998	1	C3	0	1	0.74227
84.9389	1	C2	0	1	0.9357
90.9763	1	C1	0	1	0.7549
95.0146	1	B5	0	1	0.88547
97.0538	1	B4	0	1	0.92505
101.092	1	B3	0	1	0.84645
107.1295	1	B2	0	1	1.065
113.1669	1	B1	0	1	0.78017
119.2043	1	A5	90	1	0.8798
125.2417	1	B1	0	1	0.76982
129.28	1	B2	0	1	0.79497
131.3192	1	B5	0	1	0.72357
137.3566	1	B4	90	0	0.56653
143.394	1	B3	90	1	1.2588
147.4323	1	B1	0	1	0.82557
151.4706	1	B4	0	1	1.2044
155.5088	1	B5	0	1	0.97418
161.5463	1	B3	0	1	0.77505
167.5837	1	B4	0	1	0.85147
171.622	1	B5	0	1	0.91089
175.6603	1	B3	0	1	0.72749
179.6985	1	B2	0	1	0.90636
183.7368	1	B1	90	0	0.81091
185.7759	1	B3	90	1	0.93757
189.8142	1	B2	0	1	0.88678
195.8516	1	B1	0	1	0.77476
201.8891	1	A5	0	1	1.0809
207.9265	1	A4	0	1	0.94216
209.9656	1	A3	0	1	1.0294
212.0048	1	A2	0	1	0.75152
218.0422	1	A1	0	1	0.83187
220.0813	1	C5	0	1	0.78391
222.1205	1	C4	0	1	0.68384
228.1579	1	C3	0	1	0.64435
234.1953	1	C2	0	1	0.75953
238.2336	1	C1	0	1	0.81905
242.2719	1	B5	0	1	0.9707
244.311	1	B4	0	1	0.8854
248.3493	1	B3	0	1	0.91081
254.3867	1	B1	90	0	0.8002
256.4258	1	B4	0	1	0.89066
258.465	1	B1	0	1	0.74421
260.5041	1	B2	0	1	0.85996
262.5432	1	B4	0	1	0.65267
268.5807	1	B2	0	1	0.9022
270.6198	1	B5	0	1	0.96696
272.6589	1	B3	0	1	0.71376
274.6981	1	B4	0	1	0.6337
276.7372	1	B5	0	1	0.74407
282.7746	1	B2	0	1	0.72446
286.8129	1	B1	0	1	0.94334
288.852	1	B2	0	1	0.74188
292.8903	1	B3	0	1	0.7282
296.9286	1	B1	0	1	0.6412
298.9677	1	B2	0	1	0.65295
303.006	1	B3	0	1	0.75625
307.0443	1	B4	0	1	0.77601
309.0834	1	B5	0	1	0.83958
313.1217	1	C1	0	1	0.64874
317.16	1	C2	0	1	0.84507
323.1974	1	C3	0	1	0.71693
327.2357	1	C4	0	1	0.62193
333.2731	1	C5	0	1	0.82639
337.3114	1	A1	0	1	0.71537
339.3505	1	A2	0	1	0.77953
343.3888	1	A3	0	1	0.98097
347.4271	1	A4	0	1	0.99047
349.4662	1	A5	0	1	0.87973
351.5054	1	B1	0	1	0.7373
353.5445	1	A5	0	1	0.82
357.5828	1	A4	0	1	0.65214
363.6202	1	A1	0	1	0.8452
367.6585	1	A4	0	1	0.68182
371.6968	1	A2	0	1	0.73076
375.735	1	A4	0	1	0.69345
379.7733	1	A3	0	1	1.0372
381.8124	1	A1	0	1	0.64526
383.8516	1	A4	0	1	0.5737
385.8907	1	A3	0	1	0.89553
391.9281	1	A2	0	1	0.72231
395.9664	1	A1	0	1	0.62689
398.0055	1	C5	0	1	0.72579
404.043	1	A1	0	1	0.72958
406.0821	1	A4	0	1	0.65549
412.1195	1	A3	0	1	0.85188
414.1587	1	A2	0	1	0.81234
416.1978	1	A1	90	1	1.2038
420.2361	1	C5	0	1	0.71731
422.2752	1	C4	0	1	0.73629
428.3126	1	C3	90	1	1.0811
430.3518	1	C2	0	1	0.76929
432.3909	1	C1	90	0	0.91546
436.4292	1	B5	0	1	0.9346
442.4666	1	B4	90	0	0.93657
446.5049	1	B3	0	1	0.97109
448.544	1	B2	0	1	0.86846
454.5814	1	B1	0	1	0.86904
456.6206	1	A5	90	0	1.0292
462.658	1	A4	0	1	0.92031
464.6971	1	A1	0	1	0.61746
466.7363	1	A4	0	1	0.70015
468.7754	1	A1	90	1	0.94789
474.8128	1	A4	0	1	0.88458
478.8511	1	A2	0	1	0.88706
482.8894	1	A3	0	1	1.1146
488.9268	1	A4	90	1	1.068
492.9651	1	A1	0	1	0.67793
499.0025	1	A2	0	1	0.88858
501.0416	1	A4	0	1	0.65052
505.0799	1	A3	0	1	1.061
509.1182	1	A1	0	1	0.63534
515.1556	1	A2	0	1	0.72937
521.1931	1	A4	0	1	0.77025
523.2322	1	A5	0	1	0.79294
525.2713	1	A4	0	1	0.61947
527.3104	1	A3	0	1	0.82883
529.3496	1	A2	0	1	0.65378
533.3879	1	A1	0	1	0.56803
537.4261	1	C5	0	1	0.85682
541.4644	1	C4	0	1	0.71309
545.5027	1	C3	0	1	0.8918
549.541	1	C2	0	1	1.208
553.5793	1	C1	0	1	0.84619
559.6167	1	B5	0	1	0.92944
563.655	1	B4	0	1	0.82986
567.6932	1	B3	0	1	0.84612
573.7307	1	B2	0	1	0.75841
575.7698	1	B1	0	1	0.7939
577.8089	1	A5	0	1	0.81762
583.8464	1	A3	0	1	0.90191
587.8846	1	A4	0	1	0.94208
591.9229	1	A1	0	1	0.58264
593.9621	1	A4	0	1	0.63171
598.0003	1	A5	90	1	0.99403
600.0395	1	A2	0	1	0.98639
602.0786	1	A1	0	1	0.62798
606.1169	1	C5	0	1	0.80626
610.1552	1	C3	0	1	0.57652
614.1934	1	C4	0	1	0.74728
