onset	duration	item	rotation	accuracy	reaction_time	stim_file
10.0176	1	A4	0	1	1.0335	sub-07_stim-commstruc_A4.jpg
12.0568	1	A1	0	1	0.72441	sub-07_stim-commstruc_A1.jpg
14.0959	1	A4	0	1	0.60386	sub-07_stim-commstruc_A4.jpg
20.1333	1	A1	0	1	0.68789	sub-07_stim-commstruc_A1.jpg
24.1716	1	A3	0	1	0.72031	sub-07_stim-commstruc_A3.jpg
28.2099	1	A2	0	1	0.78701	sub-07_stim-commstruc_A2.jpg
30.249	1	A5	0	1	0.95632	sub-07_stim-commstruc_A5.jpg
34.2873	1	B1	0	1	0.79432	sub-07_stim-commstruc_B1.jpg
40.3247	1	B4	0	1	0.90285	sub-07_stim-commstruc_B4.jpg
44.363	1	B3	90	1	0.96866	sub-07_stim-commstruc_B3.jpg
46.4021	1	B2	0	0	0.97589	sub-07_stim-commstruc_B2.jpg
52.4396	1	B3	0	1	0.77304	sub-07_stim-commstruc_B3.jpg
54.4787	1	B2	0	1	0.91699	sub-07_stim-commstruc_B2.jpg
60.5161	1	B4	0	1	0.79762	sub-07_stim-commstruc_B4.jpg
64.5544	1	B1	0	1	0.93762	sub-07_stim-commstruc_B1.jpg
68.5927	1	A5	90	0	0.98767	sub-07_stim-commstruc_A5.jpg
72.631	1	A4	0	1	0.9011	sub-07_stim-commstruc_A4.jpg
74.6701	1	A3	0	1	0.88575	sub-07_stim-commstruc_A3.jpg
78.7084	1	A2	0	1	0.99969	sub-07_stim-commstruc_A2.jpg
82.7466	1	A1	0	1	0.83137	sub-07_stim-commstruc_A1.jpg
86.7849	1	C5	0	1	1.1942	sub-07_stim-commstruc_C5.jpg
90.8232	1	C4	0	1	0.7982	sub-07_stim-commstruc_C4.jpg
94.8615	1	C3	0	1	0.84563	sub-07_stim-commstruc_C3.jpg
98.8998	1	C2	0	1	0.782	sub-07_stim-commstruc_C2.jpg
104.9372	1	C1	0	1	0.71514	sub-07_stim-commstruc_C1.jpg
106.9763	1	B5	0	1	1.0529	sub-07_stim-commstruc_B5.jpg
109.0155	1	B4	0	1	0.93878	sub-07_stim-commstruc_B4.jpg
111.0546	1	B3	0	1	0.77293	sub-07_stim-commstruc_B3.jpg
115.0929	1	B2	0	1	0.91966	sub-07_stim-commstruc_B2.jpg
117.132	1	B1	0	1	0.76858	sub-07_stim-commstruc_B1.jpg
123.1694	1	A5	0	1	0.79375	sub-07_stim-commstruc_A5.jpg
125.2086	1	B1	0	1	0.74855	sub-07_stim-commstruc_B1.jpg
131.246	1	A5	0	1	0.78767	sub-07_stim-commstruc_A5.jpg
133.2851	1	A4	0	1	0.9825	sub-07_stim-commstruc_A4.jpg
139.3225	1	A2	90	0	0.73876	sub-07_stim-commstruc_A2.jpg
143.3608	1	A5	0	1	0.73089	sub-07_stim-commstruc_A5.jpg
147.3991	1	A4	0	1	0.763	sub-07_stim-commstruc_A4.jpg
149.4382	1	A5	0	1	0.75617	sub-07_stim-commstruc_A5.jpg
153.4765	1	A4	90	0	0.87266	sub-07_stim-commstruc_A4.jpg
159.5139	1	A2	0	1	0.91318	sub-07_stim-commstruc_A2.jpg
165.5514	1	A5	0	1	0.70181	sub-07_stim-commstruc_A5.jpg
167.5905	1	A3	0	1	0.85981	sub-07_stim-commstruc_A3.jpg
169.6296	1	A2	0	1	0.74407	sub-07_stim-commstruc_A2.jpg
175.667	1	A5	0	1	0.67095	sub-07_stim-commstruc_A5.jpg
177.7062	1	A4	0	1	0.7695	sub-07_stim-commstruc_A4.jpg
181.7445	1	A3	0	1	0.82655	sub-07_stim-commstruc_A3.jpg
187.7819	1	A2	0	1	0.8234	sub-07_stim-commstruc_A2.jpg
189.821	1	A1	0	1	0.87719	sub-07_stim-commstruc_A1.jpg
193.8593	1	C5	0	1	0.95204	sub-07_stim-commstruc_C5.jpg
195.8984	1	C4	0	1	0.73773	sub-07_stim-commstruc_C4.jpg
197.9376	1	C3	0	1	0.769	sub-07_stim-commstruc_C3.jpg
201.9758	1	C2	0	1	0.80592	sub-07_stim-commstruc_C2.jpg
204.015	1	C1	0	1	0.7161	sub-07_stim-commstruc_C1.jpg
206.0541	1	B5	0	1	0.9597	sub-07_stim-commstruc_B5.jpg
210.0924	1	B4	0	1	0.86447	sub-07_stim-commstruc_B4.jpg
212.1315	1	B3	0	1	0.61703	sub-07_stim-commstruc_B3.jpg
218.1689	1	B2	90	0	0.80156	sub-07_stim-commstruc_B2.jpg
220.2081	1	B1	0	1	0.70771	sub-07_stim-commstruc_B1.jpg
222.2472	1	A5	0	1	0.79786	sub-07_stim-commstruc_A5.jpg
224.2863	1	A4	0	1	0.6529	sub-07_stim-commstruc_A4.jpg
230.3238	1	A2	90	1	0.99176	sub-07_stim-commstruc_A2.jpg
232.3629	1	A1	0	1	0.90539	sub-07_stim-commstruc_A1.jpg
234.402	1	A4	0	1	0.72811	sub-07_stim-commstruc_A4.jpg
238.4403	1	A5	0	1	0.76536	sub-07_stim-commstruc_A5.jpg
242.4786	1	A2	0	1	0.77331	sub-07_stim-commstruc_A2.jpg
246.5169	1	A4	0	1	0.6793	sub-07_stim-commstruc_A4.jpg
252.5543	1	A1	0	1	0.68829	sub-07_stim-commstruc_A1.jpg
256.5926	1	C5	0	1	0.74558	sub-07_stim-commstruc_C5.jpg
262.63	1	A1	0	1	0.63828	sub-07_stim-commstruc_A1.jpg
264.6691	1	A2	90	1	0.9363	sub-07_stim-commstruc_A2.jpg
268.7074	1	A4	0	1	0.76192	sub-07_stim-commstruc_A4.jpg
270.7465	1	A2	0	1	0.95149	sub-07_stim-commstruc_A2.jpg
274.7848	1	A3	0	1	0.74534	sub-07_stim-commstruc_A3.jpg
276.8239	1	A4	0	1	0.75785	sub-07_stim-commstruc_A4.jpg
278.8631	1	A5	0	1	1.1434	sub-07_stim-commstruc_A5.jpg
282.9014	1	A4	90	0	0.98955	sub-07_stim-commstruc_A4.jpg
288.9388	1	A3	0	1	0.75337	sub-07_stim-commstruc_A3.jpg
294.9762	1	A2	90	0	0.79523	sub-07_stim-commstruc_A2.jpg
301.0136	1	A1	0	1	1.0543	sub-07_stim-commstruc_A1.jpg
305.0519	1	C5	0	1	1.1036	sub-07_stim-commstruc_C5.jpg
309.0902	1	C4	0	1	0.72033	sub-07_stim-commstruc_C4.jpg
313.1285	1	C3	0	1	0.72519	sub-07_stim-commstruc_C3.jpg
315.1676	1	C2	0	1	1.0297	sub-07_stim-commstruc_C2.jpg
319.2059	1	C1	0	1	0.84413	sub-07_stim-commstruc_C1.jpg
323.2442	1	B5	0	1	0.88856	sub-07_stim-commstruc_B5.jpg
325.2833	1	B4	0	1	0.8715	sub-07_stim-commstruc_B4.jpg
329.3216	1	B3	0	1	0.72992	sub-07_stim-commstruc_B3.jpg
331.3607	1	B2	0	1	1.0501	sub-07_stim-commstruc_B2.jpg
333.3998	1	B1	0	1	0.7567	sub-07_stim-commstruc_B1.jpg
335.439	1	A5	0	1	0.70676	sub-07_stim-commstruc_A5.jpg
337.4781	1	A4	90	1	1.124	sub-07_stim-commstruc_A4.jpg
341.5164	1	A1	90	1	1.0376	sub-07_stim-commstruc_A1.jpg
347.5538	1	A3	0	1	0.32134	sub-07_stim-commstruc_A3.jpg
351.5921	1	A2	0	1	0.70676	sub-07_stim-commstruc_A2.jpg
355.6304	1	A4	0	1	0.73316	sub-07_stim-commstruc_A4.jpg
357.6695	1	A5	0	1	0.73294	sub-07_stim-commstruc_A5.jpg
363.7069	1	A3	0	1	0.70617	sub-07_stim-commstruc_A3.jpg
367.7452	1	A1	0	1	0.68317	sub-07_stim-commstruc_A1.jpg
371.7835	1	A4	0	1	0.53949	sub-07_stim-commstruc_A4.jpg
373.8226	1	A2	0	1	0.69515	sub-07_stim-commstruc_A2.jpg
379.86	1	A1	0	1	0.64562	sub-07_stim-commstruc_A1.jpg
383.8983	1	A3	0	1	0.89828	sub-07_stim-commstruc_A3.jpg
387.9366	1	A2	0	1	0.73264	sub-07_stim-commstruc_A2.jpg
389.9757	1	A1	0	1	0.8424	sub-07_stim-commstruc_A1.jpg
394.014	1	A3	0	1	0.64614	sub-07_stim-commstruc_A3.jpg
396.0531	1	A4	0	1	0.66284	sub-07_stim-commstruc_A4.jpg
402.0906	1	A5	0	1	0.72068	sub-07_stim-commstruc_A5.jpg
408.128	1	B1	0	1	0.82863	sub-07_stim-commstruc_B1.jpg
414.1654	1	B2	90	0	0.71725	sub-07_stim-commstruc_B2.jpg
418.2037	1	B3	0	1	0.75031	sub-07_stim-commstruc_B3.jpg
422.242	1	B4	0	1	0.6642	sub-07_stim-commstruc_B4.jpg
428.2794	1	B5	0	1	0.52482	sub-07_stim-commstruc_B5.jpg
430.3185	1	C1	0	1	0.78799	sub-07_stim-commstruc_C1.jpg
436.356	1	C2	0	1	1.0707	sub-07_stim-commstruc_C2.jpg
438.3951	1	C3	0	1	0.7835	sub-07_stim-commstruc_C3.jpg
440.4342	1	C4	0	1	0.75149	sub-07_stim-commstruc_C4.jpg
446.4717	1	C5	0	1	0.76378	sub-07_stim-commstruc_C5.jpg
452.5091	1	A1	0	1	0.6691	sub-07_stim-commstruc_A1.jpg
454.5482	1	A2	0	1	0.6396	sub-07_stim-commstruc_A2.jpg
456.5873	1	A3	0	1	0.69445	sub-07_stim-commstruc_A3.jpg
458.6265	1	A2	0	1	0.65766	sub-07_stim-commstruc_A2.jpg
462.6648	1	A3	0	1	0.69307	sub-07_stim-commstruc_A3.jpg
466.703	1	A2	90	1	0.96546	sub-07_stim-commstruc_A2.jpg
468.7422	1	A4	0	1	1.0377	sub-07_stim-commstruc_A4.jpg
474.7796	1	A1	0	1	0.8416	sub-07_stim-commstruc_A1.jpg
480.817	1	A4	0	1	0.56165	sub-07_stim-commstruc_A4.jpg
484.8553	1	A1	0	1	0.661	sub-07_stim-commstruc_A1.jpg
486.8944	1	A3	0	1	0.70199	sub-07_stim-commstruc_A3.jpg
488.9336	1	A2	0	1	0.79757	sub-07_stim-commstruc_A2.jpg
490.9727	1	A4	0	1	0.80899	sub-07_stim-commstruc_A4.jpg
495.011	1	A1	0	n/a	n/a	sub-07_stim-commstruc_A1.jpg
499.0493	1	A2	0	1	0.64429	sub-07_stim-commstruc_A2.jpg
505.0867	1	A5	0	1	0.6612	sub-07_stim-commstruc_A5.jpg
511.1241	1	A4	0	1	0.92097	sub-07_stim-commstruc_A4.jpg
517.1615	1	A2	0	1	0.89209	sub-07_stim-commstruc_A2.jpg
519.2007	1	A1	0	1	0.81726	sub-07_stim-commstruc_A1.jpg
523.239	1	C5	90	0	0.85893	sub-07_stim-commstruc_C5.jpg
527.2772	1	C4	0	1	0.99151	sub-07_stim-commstruc_C4.jpg
533.3147	1	C3	90	1	0.79503	sub-07_stim-commstruc_C3.jpg
537.3529	1	C2	0	1	0.94831	sub-07_stim-commstruc_C2.jpg
539.3921	1	C1	0	1	0.81203	sub-07_stim-commstruc_C1.jpg
541.4312	1	B5	0	1	1.0543	sub-07_stim-commstruc_B5.jpg
545.4695	1	B4	0	1	0.62109	sub-07_stim-commstruc_B4.jpg
551.5069	1	B3	0	1	0.80908	sub-07_stim-commstruc_B3.jpg
553.546	1	B2	0	1	1.0666	sub-07_stim-commstruc_B2.jpg
559.5835	1	B1	0	1	0.53175	sub-07_stim-commstruc_B1.jpg
565.6209	1	A5	0	1	0.90898	sub-07_stim-commstruc_A5.jpg
569.6592	1	A4	90	0	0.87173	sub-07_stim-commstruc_A4.jpg
575.6966	1	A3	0	1	0.76458	sub-07_stim-commstruc_A3.jpg
579.7349	1	A2	0	1	0.85114	sub-07_stim-commstruc_A2.jpg
581.774	1	A4	0	1	0.71885	sub-07_stim-commstruc_A4.jpg
583.8131	1	A3	0	1	1.046	sub-07_stim-commstruc_A3.jpg
587.8514	1	A1	0	1	1.0337	sub-07_stim-commstruc_A1.jpg
591.8897	1	A3	0	1	0.64928	sub-07_stim-commstruc_A3.jpg
595.928	1	A4	0	1	0.62818	sub-07_stim-commstruc_A4.jpg
601.9654	1	A2	0	1	0.71093	sub-07_stim-commstruc_A2.jpg
604.0045	1	A4	0	1	0.92102	sub-07_stim-commstruc_A4.jpg
608.0428	1	A1	0	1	0.57851	sub-07_stim-commstruc_A1.jpg
610.0819	1	A4	0	1	0.62404	sub-07_stim-commstruc_A4.jpg
612.1211	1	A1	0	1	0.60311	sub-07_stim-commstruc_A1.jpg
