onset	duration	item	rotation	accuracy	reaction_time
10.0242	1	C5	0	0	0.72714
14.0625	1	A1	90	0	1.0283
18.1008	1	A4	0	0	0.93678
24.1382	1	A5	0	0	0.85328
28.1765	1	A4	90	0	0.90989
34.2139	1	A5	0	0	0.78767
38.2522	1	B1	0	0	0.80419
42.2905	1	B2	0	0	0.85325
48.3279	1	B3	0	0	0.75913
52.3662	1	B4	0	0	0.98367
54.4053	1	B5	0	0	0.74675
60.4428	1	C1	0	0	1.0853
66.4802	1	C2	0	0	0.76926
68.5193	1	C3	0	0	0.72808
74.5568	1	C4	0	0	0.80925
76.5959	1	C5	0	0	0.94865
82.6333	1	A1	90	1	0.47974
84.6724	1	A2	0	0	0.67076
90.7099	1	A3	0	0	0.87444
92.749	1	A4	0	0	0.76874
96.7873	1	A2	0	0	0.82907
98.8264	1	A1	0	0	0.75708
102.8647	1	A3	90	0	0.80893
106.903	1	A5	0	0	0.93628
112.9404	1	A4	0	0	0.81217
114.9796	1	A1	90	1	0.58951
117.0187	1	A2	0	0	0.78935
121.057	1	A3	0	0	0.88764
123.0961	1	A5	0	0	0.7279
129.1335	1	A2	0	0	0.74013
135.1709	1	A4	90	0	0.93892
139.3558	1	A3	0	0	0.51627
143.3941	1	A1	0	0	0.77499
145.4332	1	C5	0	0	0.66934
147.4724	1	C3	0	0	0.93506
153.5098	1	C4	0	0	0.77963
157.5481	1	C5	0	0	0.66551
159.5872	1	A1	0	0	0.531
161.6263	1	A2	0	0	0.5965
163.6655	1	A3	0	0	0.82146
167.7038	1	A4	0	0	0.80122
171.742	1	A5	0	1	0.69071
173.7812	1	B1	90	n/a	n/a
175.8203	1	B2	0	0	0.99437
179.8586	1	B3	0	0	0.6991
181.8977	1	B4	0	0	0.86862
183.9369	1	B5	0	0	1.159
185.976	1	C1	0	0	0.95898
188.0151	1	C2	0	0	0.73676
194.0525	1	C3	0	0	0.94569
196.0917	1	C4	0	0	0.78191
198.1308	1	C3	0	0	0.7906
202.1691	1	C1	0	0	0.99835
208.2065	1	B5	0	0	0.8959
214.2439	1	B2	0	0	0.65116
218.2822	1	B1	0	0	0.41476
220.3214	1	B2	0	0	0.82248
224.3596	1	B1	0	0	0.53738
228.3979	1	B2	0	0	0.52335
230.437	1	B1	0	0	1.0979
236.4745	1	A5	0	0	0.87876
238.5136	1	A4	0	0	0.7404
240.5527	1	A5	90	1	0.7492
246.5902	1	A3	0	0	0.74517
250.6284	1	A4	0	0	0.66737
256.6659	1	A5	0	0	0.95644
258.705	1	B1	0	0	1.0324
260.7441	1	B2	0	0	0.81385
264.7824	1	B3	0	0	0.83387
268.8207	1	B4	90	0	1.0813
272.859	1	B5	0	0	0.63851
274.8981	1	C1	0	0	1.206
280.9355	1	C2	0	0	0.96111
282.9747	1	C3	0	0	0.84722
285.0138	1	C4	0	0	1.0282
287.053	1	C5	0	0	0.86772
289.0921	1	A1	0	0	0.93356
293.1304	1	A2	0	0	1.0365
295.1695	1	A3	0	0	0.71163
297.2086	1	A4	0	0	0.86992
303.246	1	A5	0	0	0.95535
309.2835	1	A2	0	0	0.90192
311.3226	1	A1	0	0	0.93196
317.36	1	A3	0	0	0.88637
321.3983	1	A4	0	0	0.72323
323.4374	1	A2	0	0	0.7145
329.4749	1	A3	0	0	0.51773
335.5123	1	A2	0	0	0.65376
341.5497	1	A3	0	0	0.92841
343.5889	1	A5	90	1	0.72308
345.628	1	A4	0	0	1.0856
347.6671	1	A5	0	0	0.91828
351.7054	1	A2	0	0	1.1101
353.7445	1	A1	0	0	0.97397
355.7837	1	A2	0	0	1.0406
357.8228	1	A3	0	0	1.0283
361.8611	1	A4	90	0	1.2247
365.8994	1	A5	0	0	0.98055
369.9377	1	B1	0	0	0.88552
375.9751	1	B2	0	0	0.7705
382.0125	1	B3	0	0	1.1469
386.0508	1	B4	0	0	1.0365
390.0891	1	B5	0	0	0.85612
394.1273	1	C1	0	0	0.92187
398.1656	1	C2	0	0	1.098
402.2039	1	C3	0	0	0.73163
404.243	1	C4	0	0	0.97929
408.2813	1	C5	90	1	0.94144
412.3196	1	A1	0	0	0.65637
416.3579	1	A2	0	0	0.68111
418.397	1	A1	0	0	0.6026
422.4353	1	A2	0	0	0.81181
424.4744	1	A5	0	0	1.1263
426.5136	1	B1	0	0	0.73291
430.5518	1	B4	0	0	1.0284
436.5893	1	B1	0	0	0.76157
438.6284	1	B2	90	0	0.90112
440.6675	1	B3	0	0	0.65917
444.7058	1	B2	0	0	0.57428
446.7449	1	B3	0	0	0.76509
448.7841	1	B5	0	0	0.83116
454.8215	1	B4	0	0	0.97804
456.8606	1	B3	0	0	0.73013
460.8989	1	B5	90	1	0.66057
464.9372	1	C1	0	0	0.96619
468.9755	1	B5	0	0	0.94504
475.0129	1	B4	0	0	1.2201
479.0512	1	B3	0	0	0.90112
483.0895	1	B2	90	0	0.96776
487.1277	1	B1	0	0	0.84799
491.166	1	A5	0	0	0.75537
495.2043	1	A4	90	0	1.0285
501.2417	1	A3	0	0	1.0776
505.28	1	A2	90	0	0.80619
511.3174	1	A1	0	0	0.90768
513.3566	1	C5	0	0	0.83389
519.394	1	C4	0	0	1.0774
523.4323	1	C3	0	0	0.74423
529.4697	1	C2	0	0	1.1468
533.508	1	C1	0	0	1.0775
539.5454	1	C2	0	0	0.90065
543.5837	1	C4	90	1	1.0283
547.622	1	C3	0	0	0.70378
551.6603	1	C5	0	0	0.86841
555.6985	1	C4	0	0	0.88508
557.7377	1	C5	0	0	0.80765
561.776	1	C3	0	0	0.79937
563.8151	1	C5	0	n/a	n/a
569.8525	1	C4	0	0	0.61937
571.8917	1	C1	0	0	1.061
577.9291	1	C3	0	0	0.64035
583.9665	1	C4	0	0	0.72264
590.0039	1	C1	0	0	0.77901
592.0431	1	C2	0	0	0.77425
596.0814	1	C1	0	0	0.86936
602.1188	1	C2	0	0	0.76054
604.1579	1	C3	90	1	0.91427
606.197	1	C4	0	0	0.89813
608.2362	1	C5	90	n/a	n/a
612.2745	1	A1	0	0	0.79536
